Timestamp;Accel_x;Accel_y;Accel_z;Gyro_x;Gyro_y;Gyro_z;
20190908_141509;3.833;5.691;3.929;0.210;-0.231;0.165;
20190908_141509;2.045;3.936;8.897;-0.984;1.719;0.648;
20190908_141509;2.703;3.232;8.940;-1.618;0.688;0.751;
20190908_141510;2.617;3.836;9.201;-0.475;0.458;0.020;
20190908_141510;-0.177;3.773;7.599;0.200;1.046;-0.022;
20190908_141510;0.036;3.958;7.491;0.134;-0.088;0.294;
20190908_141510;-0.034;4.005;7.757;0.229;0.060;0.180;
20190908_141510;-0.148;4.238;8.806;1.422;0.161;-0.290;
20190908_141510;-0.172;4.671;7.561;0.741;0.124;0.078;
20190908_141510;0.733;5.732;6.685;0.042;-0.439;0.085;
20190908_141510;-0.517;4.630;5.696;0.593;0.360;0.248;
20190908_141510;-2.875;6.713;6.895;1.551;3.439;-0.651;
20190908_141511;-0.510;6.055;9.323;0.811;-3.035;2.300;
20190908_141511;2.878;6.419;6.574;0.460;-0.003;-0.091;
20190908_141511;3.060;5.751;4.410;0.542;-2.253;0.887;
20190908_141511;2.614;6.699;6.208;0.119;-0.348;-0.165;
20190908_141511;4.089;6.024;2.880;0.598;-0.901;0.510;
20190908_141511;4.020;6.522;4.475;0.066;-0.760;0.287;
20190908_141511;3.464;7.080;1.844;1.043;-1.283;-0.687;
20190908_141511;4.214;8.195;2.174;0.583;0.343;-0.017;
20190908_141511;5.274;8.794;0.560;2.543;-0.370;-0.827;
20190908_141511;4.338;7.915;-2.236;2.114;-0.622;-0.523;
20190908_141512;4.808;8.492;-2.950;1.976;0.248;0.045;
20190908_141512;4.046;8.744;-5.016;0.949;0.032;-0.795;
20190908_141512;2.143;8.871;-5.437;0.761;-0.021;-0.724;
20190908_141512;2.550;7.824;-5.883;0.540;-0.145;-0.900;
20190908_141512;1.085;7.362;-7.154;0.752;0.643;0.436;
20190908_141512;5.942;6.591;-6.682;0.638;0.401;-0.112;
20190908_141512;2.756;7.053;-6.495;0.025;-0.771;-0.494;
20190908_141512;2.042;8.358;-6.926;-0.014;-0.379;-0.224;
20190908_141512;0.783;7.994;-7.250;0.084;-0.262;-0.288;
20190908_141513;1.264;7.518;-7.089;0.133;0.108;0.044;
20190908_141513;1.195;7.561;-6.366;-0.623;-0.545;-0.920;
20190908_141513;-1.219;8.169;-7.149;-0.224;-0.038;-0.528;
20190908_141513;0.972;7.906;-6.450;-0.272;-0.207;0.263;
20190908_141513;-0.031;8.351;-6.311;0.017;-0.000;0.003;
20190908_141513;0.050;8.947;-6.206;-0.141;-0.103;0.056;
20190908_141513;0.709;8.155;-5.835;-0.078;-0.023;0.055;
20190908_141513;-2.085;11.341;-5.868;-0.517;-0.003;-0.176;
20190908_141513;0.017;8.911;-4.444;-0.191;0.032;-0.021;
20190908_141513;-0.220;8.844;-5.684;0.004;0.008;-0.004;
20190908_141514;1.046;9.682;-4.379;-0.397;-0.261;0.620;
20190908_141514;-0.139;9.064;-5.607;0.007;0.001;0.009;
20190908_141514;0.560;8.384;-6.038;-0.060;-0.045;-0.044;
20190908_141514;-0.783;6.598;-5.071;-0.690;-0.114;-0.246;
20190908_141514;-2.049;12.828;-2.464;-0.974;0.081;-0.300;
20190908_141514;-0.048;9.809;-4.537;0.119;0.007;-0.002;
20190908_141514;-0.582;9.764;-3.958;-0.548;0.185;-0.300;
20190908_141514;-0.369;9.821;-3.412;-0.064;0.019;-0.045;
20190908_141514;0.323;9.783;-2.583;-0.617;0.045;0.379;
20190908_141515;0.230;11.102;-2.763;-0.076;0.013;0.035;
20190908_141515;0.421;10.989;-2.964;0.054;0.015;0.110;
20190908_141515;0.034;9.965;-2.447;0.022;0.023;0.002;
20190908_141515;0.019;9.967;-2.720;0.005;-0.009;0.001;
20190908_141515;0.041;10.008;-2.962;0.012;0.028;-0.002;
20190908_141515;0.055;9.986;-2.667;0.059;0.019;0.004;
20190908_141515;0.062;10.022;-3.096;0.001;-0.000;0.001;
20190908_141515;0.041;10.017;-2.969;0.015;-0.000;0.000;
20190908_141515;0.029;10.051;-2.844;0.011;0.002;0.000;
20190908_141515;0.034;10.032;-2.863;0.011;0.002;0.000;
20190908_141516;0.043;10.068;-2.890;0.011;0.001;-0.001;
20190908_141516;0.012;10.101;-2.866;0.009;0.001;0.000;
20190908_141516;0.045;10.087;-2.904;0.010;-0.000;-0.001;
20190908_141516;0.031;10.106;-2.907;0.008;-0.000;-0.001;
20190908_141516;0.026;10.092;-2.907;0.006;0.001;-0.002;
20190908_141516;0.034;10.130;-2.916;0.009;-0.000;-0.002;
20190908_141516;0.041;10.075;-2.950;0.007;-0.000;-0.001;
20190908_141516;0.043;10.094;-2.950;0.007;-0.000;-0.003;
20190908_141516;0.069;10.120;-2.926;0.005;-0.000;-0.002;
20190908_141516;0.022;10.092;-2.962;0.007;-0.000;-0.003;
20190908_141517;0.034;10.084;-2.945;0.006;-0.001;-0.003;
20190908_141517;0.041;10.065;-2.930;0.004;-0.000;-0.003;
20190908_141517;0.036;10.065;-2.959;0.005;-0.001;-0.002;
20190908_141517;0.034;10.099;-2.966;0.007;-0.001;-0.003;
20190908_141517;0.048;10.039;-2.954;0.006;-0.000;-0.002;
20190908_141517;0.034;10.046;-2.983;0.005;-0.000;-0.002;
20190908_141517;0.055;10.070;-2.962;0.005;-0.000;-0.003;
20190908_141517;0.041;10.017;-2.952;0.005;-0.000;-0.003;
20190908_141517;0.048;10.008;-2.933;-0.003;-0.000;-0.002;
20190908_141518;0.041;10.025;-3.146;0.006;-0.001;-0.003;
20190908_141518;0.045;10.029;-2.806;0.017;-0.000;-0.005;
20190908_141518;0.081;9.998;-2.806;-0.004;-0.000;-0.001;
20190908_141518;0.072;9.979;-2.880;-0.002;-0.002;0.001;
20190908_141518;0.057;10.017;-2.950;0.009;-0.000;-0.001;
20190908_141518;0.050;9.989;-2.947;0.020;-0.002;-0.002;
20190908_141518;0.093;9.950;-2.945;-0.018;0.001;0.011;
20190908_141518;0.225;9.943;-2.940;-0.002;-0.002;0.056;
20190908_141518;0.232;9.974;-3.117;0.036;-0.001;0.027;
20190908_141518;0.129;9.890;-2.914;0.031;-0.002;0.151;
20190908_141519;0.184;9.943;-3.069;0.024;0.001;-0.003;
20190908_141519;0.194;9.912;-2.957;0.048;-0.004;-0.012;
20190908_141519;0.194;9.919;-3.194;0.086;0.004;-0.015;
20190908_141519;0.170;9.917;-3.737;0.014;-0.002;-0.001;
20190908_141519;0.199;9.876;-3.268;0.003;-0.000;-0.002;
20190908_141519;0.177;9.902;-3.256;0.005;-0.001;-0.001;
20190908_141519;0.165;9.902;-3.242;0.006;-0.000;-0.002;
20190908_141519;0.192;9.900;-3.263;0.003;-0.001;-0.002;
20190908_141519;0.139;9.871;-3.306;0.005;-0.000;-0.003;
20190908_141520;0.187;9.890;-3.311;0.005;-0.001;-0.004;
20190908_141520;0.189;9.855;-3.326;0.006;-0.002;-0.004;
20190908_141520;0.170;9.819;-3.364;0.006;-0.002;-0.004;
20190908_141520;0.168;9.797;-3.340;0.005;-0.002;-0.003;
20190908_141520;0.196;9.792;-3.364;0.003;-0.002;-0.002;
20190908_141520;0.204;9.799;-3.369;0.006;-0.001;-0.004;
20190908_141520;0.182;9.780;-3.417;0.003;-0.001;-0.005;
20190908_141520;0.177;9.773;-3.400;0.003;-0.001;-0.004;
20190908_141520;0.187;9.737;-3.402;0.002;-0.002;-0.004;
20190908_141520;0.199;9.732;-3.424;0.003;-0.002;-0.004;
20190908_141521;0.180;9.744;-3.409;0.003;-0.001;-0.004;
20190908_141521;0.192;9.716;-3.402;0.003;-0.001;-0.005;
20190908_141521;0.201;9.697;-3.409;0.002;-0.002;-0.004;
20190908_141521;0.187;9.680;-3.405;0.004;-0.002;-0.003;
20190908_141521;0.201;9.663;-3.421;0.002;-0.002;-0.002;
20190908_141521;0.189;9.622;-3.424;0.001;-0.001;-0.002;
20190908_141521;0.196;9.620;-3.402;0.002;-0.001;-0.002;
20190908_141521;0.208;9.608;-3.433;0.001;-0.001;-0.003;
20190908_141521;0.199;9.589;-3.390;0.003;-0.001;-0.002;
20190908_141522;0.196;9.555;-3.412;0.002;-0.002;-0.002;
20190908_141522;0.196;9.560;-3.385;0.002;-0.001;-0.002;
20190908_141522;0.196;9.517;-3.402;0.002;-0.000;-0.003;
20190908_141522;0.192;9.500;-3.361;0.002;-0.001;-0.003;
20190908_141522;0.180;9.455;-3.338;0.002;-0.001;-0.003;
20190908_141522;0.172;9.464;-3.347;-0.001;-0.001;-0.003;
20190908_141522;0.201;9.424;-3.335;0.002;-0.001;-0.003;
20190908_141522;0.184;9.450;-3.299;0.003;-0.001;-0.002;
20190908_141522;0.230;9.407;-3.302;-0.001;-0.000;-0.003;
20190908_141522;0.180;9.400;-3.304;0.002;-0.002;-0.003;
20190908_141523;0.204;9.392;-3.251;-0.002;-0.002;-0.003;
20190908_141523;0.218;9.395;-3.232;0.002;-0.002;-0.002;
20190908_141523;0.204;9.352;-3.251;-0.001;-0.000;-0.003;
20190908_141523;0.196;9.333;-3.189;0.001;-0.001;-0.003;
20190908_141523;0.192;9.313;-3.175;0.002;-0.001;-0.003;
20190908_141523;0.211;9.316;-3.153;0.001;-0.001;-0.003;
20190908_141523;0.189;9.309;-3.120;-0.001;-0.001;-0.004;
20190908_141523;0.215;9.325;-3.110;0.001;-0.001;-0.003;
20190908_141523;0.204;9.285;-3.103;0.001;-0.001;-0.003;
20190908_141524;0.215;9.246;-3.081;0.001;-0.002;-0.002;
20190908_141524;0.196;9.249;-3.079;0.001;-0.003;-0.003;
20190908_141524;0.225;9.230;-3.036;0.001;-0.002;-0.002;
20190908_141524;0.192;9.251;-3.033;0.002;-0.001;-0.001;
20190908_141524;0.230;9.254;-3.012;0.002;-0.002;-0.001;
20190908_141524;0.242;9.258;-3.029;0.002;-0.001;-0.001;
20190908_141524;0.218;9.275;-3.019;0.001;-0.001;0.000;
20190908_141524;0.204;9.290;-3.024;0.001;-0.001;-0.001;
20190908_141524;0.208;9.282;-2.969;0.002;-0.002;-0.001;
20190908_141525;0.235;9.297;-2.981;0.002;-0.002;-0.002;
20190908_141525;0.218;9.292;-2.947;0.003;-0.001;-0.001;
20190908_141525;0.237;9.306;-2.945;0.003;-0.001;-0.002;
20190908_141525;0.268;9.318;-2.978;0.002;-0.002;-0.001;
20190908_141525;0.247;9.325;-2.952;0.002;0.000;0.001;
20190908_141525;0.273;9.402;-2.964;0.001;0.000;0.002;
20190908_141525;0.242;9.380;-2.954;0.002;0.000;0.001;
20190908_141525;0.268;9.397;-2.923;0.003;0.000;0.002;
20190908_141525;0.292;9.392;-2.952;0.001;0.000;0.003;
20190908_141525;0.237;9.438;-2.957;0.003;0.000;0.002;
20190908_141526;0.251;9.414;-2.926;0.001;0.001;0.002;
20190908_141526;0.256;9.483;-2.954;0.003;0.001;0.002;
20190908_141526;0.242;9.433;-2.866;0.003;0.001;0.003;
20190908_141526;0.247;9.481;-2.966;0.001;0.001;0.002;
20190908_141526;0.271;9.505;-2.969;0.002;0.001;0.003;
20190908_141526;0.259;9.483;-2.911;0.001;0.001;0.003;
20190908_141526;0.251;9.512;-2.909;0.002;0.001;0.003;
20190908_141526;0.244;9.510;-2.962;0.003;0.001;0.003;
20190908_141526;0.249;9.538;-2.947;0.003;0.000;0.004;
20190908_141527;0.259;9.565;-2.935;0.002;0.001;0.003;
20190908_141527;0.254;9.570;-2.935;0.004;0.000;0.004;
20190908_141527;0.266;9.584;-2.916;0.002;0.000;0.004;
20190908_141527;0.273;9.574;-2.914;0.003;0.000;0.002;
20190908_141527;0.278;9.598;-2.962;0.002;0.001;0.004;
20190908_141527;0.287;9.598;-2.954;0.005;0.001;0.004;
20190908_141527;0.247;9.646;-2.897;0.004;0.001;0.004;
20190908_141527;0.275;9.646;-2.916;0.004;0.001;0.004;
20190908_141527;0.268;9.649;-2.954;0.003;0.001;0.004;
20190908_141527;0.294;9.663;-2.928;0.003;0.001;0.005;
20190908_141528;0.261;9.677;-2.976;0.003;0.002;0.006;
20190908_141528;0.239;9.687;-2.947;0.003;0.001;0.005;
20190908_141528;0.237;9.685;-2.947;0.005;0.001;0.006;
20190908_141528;0.249;9.728;-2.966;0.003;0.002;0.007;
20190908_141528;0.249;9.723;-2.923;0.004;0.004;0.006;
20190908_141528;0.247;9.723;-2.964;0.002;0.004;0.006;
20190908_141528;0.247;9.742;-2.971;0.003;0.001;0.005;
20190908_141528;0.251;9.768;-2.981;0.003;0.001;0.005;
20190908_141528;0.251;9.787;-2.978;0.002;0.002;0.006;
20190908_141529;0.232;9.778;-2.988;0.002;0.002;0.005;
20190908_141529;0.215;9.749;-2.983;0.002;0.001;0.005;
20190908_141529;0.227;9.783;-2.976;-0.000;0.002;0.004;
20190908_141529;0.254;9.776;-2.966;0.001;0.002;0.004;
20190908_141529;0.230;9.787;-2.974;-0.001;-0.000;0.001;
20190908_141529;0.206;9.749;-2.954;-0.004;0.001;-0.001;
20190908_141529;0.187;9.759;-2.950;-0.002;-0.000;-0.001;
20190908_141529;0.189;9.718;-2.947;-0.005;0.001;-0.002;
20190908_141529;0.196;9.687;-2.964;-0.003;-0.000;-0.001;
20190908_141529;0.194;9.694;-2.945;-0.004;-0.000;-0.000;
20190908_141530;0.184;9.637;-2.933;-0.005;0.001;0.001;
20190908_141530;0.196;9.589;-2.933;-0.002;-0.000;0.002;
20190908_141530;0.215;9.534;-2.923;-0.004;-0.001;-0.000;
20190908_141530;0.184;9.493;-2.909;-0.004;-0.000;-0.000;
20190908_141530;0.199;9.443;-2.871;-0.005;0.001;-0.001;
20190908_141530;0.172;9.438;-2.852;-0.004;-0.000;-0.000;
20190908_141530;0.146;9.397;-2.849;-0.004;-0.000;-0.000;
20190908_141530;0.180;9.404;-2.854;-0.005;-0.000;-0.000;
20190908_141530;0.122;9.409;-2.873;-0.003;-0.000;-0.000;
20190908_141531;0.153;9.373;-2.832;-0.004;-0.000;0.001;
20190908_141531;0.144;9.359;-2.856;-0.003;-0.000;0.002;
20190908_141531;0.146;9.347;-2.796;-0.001;-0.001;0.001;
20190908_141531;0.165;9.313;-2.799;-0.004;-0.000;0.002;
20190908_141531;0.165;9.290;-2.782;-0.003;-0.000;-0.000;
20190908_141531;0.120;9.297;-2.804;-0.003;-0.001;-0.000;
20190908_141531;0.170;9.292;-2.777;-0.002;-0.001;-0.001;
20190908_141531;0.151;9.292;-2.782;-0.003;-0.001;-0.001;
20190908_141531;0.153;9.285;-2.775;-0.001;-0.000;-0.001;
20190908_141531;0.153;9.278;-2.787;0.000;-0.002;-0.002;
20190908_141532;0.144;9.347;-2.768;-0.002;-0.001;-0.001;
20190908_141532;0.151;9.349;-2.770;-0.001;-0.001;-0.001;
20190908_141532;0.168;9.345;-2.770;0.000;-0.002;-0.001;
20190908_141532;0.156;9.328;-2.770;-0.001;-0.001;-0.000;
20190908_141532;0.177;9.380;-2.775;-0.001;-0.000;-0.000;
20190908_141532;0.151;9.402;-2.739;-0.002;-0.000;-0.000;
20190908_141532;0.172;9.419;-2.775;0.001;-0.001;-0.000;
20190908_141532;0.177;9.407;-2.749;-0.001;-0.000;0.001;
20190908_141532;0.177;9.414;-2.777;0.000;-0.001;0.001;
20190908_141532;0.182;9.474;-2.763;-0.001;-0.001;0.001;
20190908_141533;0.196;9.459;-2.794;-0.001;-0.000;0.001;
20190908_141533;0.237;9.474;-2.804;0.000;-0.000;-0.000;
20190908_141533;0.196;9.467;-2.816;0.000;-0.000;-0.000;
20190908_141533;0.175;9.452;-2.756;0.000;-0.002;0.001;
20190908_141533;0.184;9.479;-2.737;0.000;-0.002;0.001;
20190908_141533;0.187;9.455;-2.801;-0.001;-0.002;-0.000;
20190908_141533;0.206;9.515;-2.801;0.000;-0.001;-0.000;
20190908_141533;0.199;9.491;-2.770;-0.002;-0.000;-0.000;
20190908_141533;0.201;9.498;-2.753;-0.001;-0.002;-0.000;
20190908_141534;0.192;9.495;-2.758;-0.001;-0.001;0.001;
20190908_141534;0.211;9.459;-2.780;-0.001;-0.001;0.001;
20190908_141534;0.220;9.483;-2.772;0.000;-0.001;0.001;
20190908_141534;0.232;9.500;-2.761;-0.002;-0.000;0.001;
20190908_141534;0.215;9.464;-2.792;-0.002;-0.000;0.001;
20190908_141534;0.244;9.510;-2.761;-0.002;-0.000;-0.000;
20190908_141534;0.220;9.471;-2.753;-0.003;-0.001;-0.000;
20190908_141534;0.218;9.459;-2.756;-0.002;-0.001;-0.000;
20190908_141534;0.206;9.486;-2.765;-0.002;-0.001;-0.000;
20190908_141535;0.244;9.488;-2.732;-0.003;-0.001;-0.001;
20190908_141535;0.227;9.498;-2.746;-0.002;-0.002;-0.002;
20190908_141535;0.242;9.474;-2.761;-0.003;-0.001;-0.001;
20190908_141535;0.232;9.507;-2.775;-0.004;-0.001;-0.001;
20190908_141535;0.223;9.481;-2.753;-0.003;-0.000;-0.001;
20190908_141535;0.230;9.488;-2.758;-0.003;-0.000;-0.000;
20190908_141535;0.199;9.498;-2.770;-0.003;-0.000;-0.000;
20190908_141535;0.232;9.464;-2.765;-0.003;0.001;-0.000;
20190908_141535;0.220;9.457;-2.725;-0.003;0.002;0.002;
20190908_141535;0.225;9.426;-2.749;-0.004;0.001;0.002;
20190908_141536;0.227;9.438;-2.753;-0.001;0.002;0.001;
20190908_141536;0.244;9.395;-2.674;-0.004;0.001;0.001;
20190908_141536;0.249;9.431;-2.713;-0.002;0.001;0.001;
20190908_141536;0.237;9.402;-2.689;-0.003;-0.000;-0.000;
20190908_141536;0.218;9.390;-2.713;-0.003;-0.000;0.001;
20190908_141536;0.225;9.428;-2.715;-0.002;0.001;-0.001;
20190908_141536;0.201;9.366;-2.715;-0.003;-0.000;-0.000;
20190908_141536;0.261;9.431;-2.705;-0.002;0.001;-0.001;
20190908_141536;0.213;9.378;-2.722;-0.002;0.001;-0.001;
20190908_141537;0.235;9.371;-2.710;-0.002;0.001;-0.001;
20190908_141537;0.180;9.369;-2.691;-0.002;0.001;-0.000;
20190908_141537;0.225;9.397;-2.684;-0.002;-0.001;-0.001;
20190908_141537;0.194;9.345;-2.689;-0.003;-0.000;-0.000;
20190908_141537;0.218;9.378;-2.686;-0.003;0.001;-0.000;
20190908_141537;0.227;9.371;-2.710;-0.002;0.001;-0.000;
20190908_141537;0.182;9.390;-2.691;-0.003;-0.000;-0.000;
20190908_141537;0.244;9.376;-2.710;-0.002;0.001;-0.000;
20190908_141537;0.218;9.383;-2.677;-0.002;0.001;-0.000;
20190908_141538;0.249;9.385;-2.665;-0.004;0.002;-0.000;
20190908_141538;0.189;9.354;-2.670;-0.001;-0.000;-0.001;
20190908_141538;0.237;9.371;-2.715;-0.002;-0.000;-0.000;
20190908_141538;0.218;9.378;-2.677;-0.003;0.002;-0.000;
20190908_141538;0.206;9.366;-2.689;-0.002;0.001;-0.000;
20190908_141538;0.242;9.347;-2.732;-0.002;-0.000;0.001;
20190908_141538;0.211;9.369;-2.667;-0.002;-0.000;-0.001;
20190908_141538;0.223;9.359;-2.679;-0.002;-0.000;-0.000;
20190908_141538;0.223;9.359;-2.708;-0.001;-0.000;-0.000;
20190908_141538;0.208;9.354;-2.701;-0.002;0.001;-0.001;
20190908_141539;0.206;9.388;-2.662;-0.004;-0.000;-0.000;
20190908_141539;0.237;9.361;-2.670;0.000;0.002;-0.001;
20190908_141539;0.251;9.376;-2.693;-0.002;0.001;0.001;
20190908_141539;0.254;9.347;-2.684;-0.004;0.002;-0.000;
20190908_141539;0.223;9.330;-2.701;-0.002;0.001;-0.001;
20190908_141539;0.225;9.306;-2.658;0.000;0.000;0.000;
20190908_141539;0.213;9.335;-2.653;0.000;-0.001;-0.001;
20190908_141539;0.187;9.340;-2.667;0.002;-0.001;0.000;
20190908_141539;0.165;9.313;-2.655;-0.002;0.000;0.000;
20190908_141539;0.201;9.359;-2.686;0.001;0.000;0.001;
20190908_141540;0.189;9.349;-2.662;0.003;-0.001;0.000;
20190908_141540;0.218;9.380;-2.701;0.003;0.000;0.001;
20190908_141540;0.208;9.390;-2.689;0.001;0.000;0.001;
20190908_141540;0.249;9.428;-2.614;0.000;-0.001;0.000;
20190908_141540;0.194;9.400;-2.691;0.007;0.000;-0.001;
20190908_141540;0.294;9.459;-2.670;-0.007;0.001;-0.001;
20190908_141540;0.249;9.481;-2.751;-0.005;-0.001;-0.001;
20190908_141540;0.182;9.491;-2.732;-0.012;-0.001;-0.001;
20190908_141540;0.208;9.517;-2.693;-0.015;0.000;-0.001;
20190908_141541;0.220;9.534;-2.679;-0.004;0.000;0.000;
20190908_141541;0.211;9.524;-2.705;-0.004;0.000;0.000;
20190908_141541;0.201;9.577;-2.732;-0.001;0.001;0.000;
20190908_141541;0.192;9.608;-2.662;-0.002;0.001;0.000;
20190908_141541;0.146;9.586;-2.732;0.002;0.001;0.001;
20190908_141541;0.220;9.673;-2.715;0.003;0.000;0.001;
20190908_141541;0.177;9.668;-2.658;0.008;-0.002;-0.001;
20190908_141541;0.199;9.725;-2.713;0.004;0.000;0.001;
20190908_141541;0.227;9.742;-2.737;0.008;0.001;0.001;
20190908_141542;0.211;9.759;-2.746;0.003;0.000;0.001;
20190908_141542;0.213;9.771;-2.751;0.010;0.000;0.001;
20190908_141542;0.215;9.831;-2.775;0.005;0.001;0.001;
20190908_141542;0.211;9.840;-2.782;0.013;-0.001;0.001;
20190908_141542;0.199;9.869;-2.775;-0.001;0.001;0.001;
20190908_141542;0.180;9.847;-2.794;0.012;0.001;0.003;
20190908_141542;0.196;9.934;-2.818;0.010;0.000;0.001;
20190908_141542;0.204;9.919;-2.765;0.010;0.000;0.001;
20190908_141542;0.235;9.955;-2.799;0.002;0.000;0.003;
20190908_141542;0.201;9.948;-2.799;0.007;0.001;0.001;
20190908_141543;0.158;9.957;-2.816;0.004;0.001;0.001;
20190908_141543;0.206;9.950;-2.830;0.005;-0.001;0.000;
20190908_141543;0.206;9.979;-2.816;0.005;0.001;0.001;
20190908_141543;0.194;9.955;-2.816;0.004;-0.001;0.000;
20190908_141543;0.204;9.953;-2.811;0.005;0.000;0.000;
20190908_141543;0.184;9.972;-2.832;0.005;0.000;-0.002;
20190908_141543;0.189;9.984;-2.811;0.008;0.001;-0.001;
20190908_141543;0.163;9.957;-2.761;0.007;0.001;-0.002;
20190908_141543;0.189;9.890;-2.804;0.009;-0.001;-0.002;
20190908_141544;0.187;9.914;-2.828;0.008;0.001;-0.001;
20190908_141544;0.165;9.893;-2.844;0.008;0.000;-0.001;
20190908_141544;0.160;9.950;-2.804;0.007;-0.001;-0.001;
20190908_141544;0.175;9.974;-2.813;0.008;-0.002;-0.001;
20190908_141544;0.204;9.957;-2.859;0.009;-0.001;-0.001;
20190908_141544;0.208;10.005;-2.871;0.003;-0.001;-0.001;
20190908_141544;0.187;10.013;-2.852;0.001;-0.001;-0.001;
20190908_141544;0.204;10.010;-2.875;0.002;-0.002;-0.001;
20190908_141544;0.156;9.984;-2.837;0.003;-0.001;-0.002;
20190908_141544;0.194;10.010;-2.828;0.001;-0.001;-0.002;
20190908_141545;0.194;9.991;-2.825;0.001;-0.001;-0.001;
20190908_141545;0.199;10.027;-2.866;0.003;0.000;-0.002;
20190908_141545;0.180;10.082;-2.842;0.001;0.000;-0.003;
20190908_141545;0.199;10.075;-2.856;0.002;-0.002;-0.002;
20190908_141545;0.184;10.034;-2.835;0.002;0.001;-0.002;
20190908_141545;0.184;9.953;-2.794;0.001;0.000;-0.001;
20190908_141545;0.223;9.946;-2.823;-0.000;-0.001;-0.000;
20190908_141545;0.215;10.046;-2.849;0.001;0.000;-0.000;
20190908_141545;0.223;10.034;-2.847;0.002;-0.001;-0.002;
20190908_141546;0.263;10.092;-2.873;0.002;0.000;-0.001;
20190908_141546;0.220;10.075;-2.849;0.001;-0.001;-0.001;
20190908_141546;0.201;9.936;-2.835;-0.003;-0.001;-0.001;
20190908_141546;0.237;9.768;-2.784;-0.003;-0.002;-0.002;
20190908_141546;0.237;9.663;-2.679;0.005;-0.003;-0.003;
20190908_141546;0.268;9.622;-2.701;0.002;-0.001;-0.001;
20190908_141546;0.242;9.754;-2.761;0.002;-0.001;-0.002;
20190908_141546;0.194;9.764;-2.744;0.001;-0.001;-0.001;
20190908_141546;0.206;9.795;-2.777;0.001;0.000;-0.002;
20190908_141547;0.242;9.850;-2.811;0.004;-0.002;-0.002;
20190908_141547;0.194;9.716;-2.741;0.002;-0.001;-0.002;
20190908_141547;0.292;9.610;-2.780;-0.001;-0.002;-0.002;
20190908_141547;0.261;9.708;-2.770;-0.004;0.000;-0.000;
20190908_141547;0.271;9.668;-2.713;-0.000;0.000;-0.001;
20190908_141547;0.287;9.811;-2.796;0.002;-0.001;-0.002;
20190908_141547;0.192;9.776;-2.751;0.001;-0.001;-0.001;
20190908_141547;0.239;9.716;-2.737;0.003;-0.002;-0.004;
20190908_141547;0.247;9.720;-2.768;0.009;-0.003;-0.003;
20190908_141548;0.254;9.653;-2.725;0.004;-0.001;-0.003;
20190908_141548;0.323;9.579;-2.772;-0.001;-0.002;-0.002;
20190908_141548;0.259;9.677;-2.739;0.001;0.000;-0.002;
20190908_141548;0.215;9.629;-2.732;-0.006;-0.001;-0.002;
20190908_141548;0.223;9.596;-2.662;-0.006;-0.001;-0.003;
20190908_141548;0.187;9.606;-2.722;-0.008;0.000;-0.000;
20190908_141548;0.194;9.562;-2.698;-0.007;0.001;-0.002;
20190908_141548;0.271;9.517;-2.672;-0.005;0.000;-0.001;
20190908_141548;0.244;9.462;-2.619;-0.007;-0.001;-0.002;
20190908_141548;0.237;9.414;-2.650;-0.001;0.000;-0.001;
20190908_141549;0.311;9.421;-2.674;-0.007;-0.001;-0.003;
20190908_141549;0.237;9.483;-2.679;-0.006;0.000;-0.003;
20190908_141549;0.273;9.632;-2.665;-0.004;-0.001;-0.003;
20190908_141549;0.261;9.474;-2.737;-0.009;-0.001;-0.003;
20190908_141549;0.189;9.548;-2.638;0.007;-0.003;-0.004;
20190908_141549;0.290;9.517;-2.710;-0.007;0.000;-0.002;
20190908_141549;0.242;9.412;-2.612;-0.001;0.000;-0.002;
20190908_141549;0.347;9.469;-2.658;-0.008;-0.001;-0.004;
20190908_141549;0.235;9.467;-2.660;-0.004;-0.001;-0.003;
20190908_141550;0.244;9.299;-2.677;0.001;-0.002;-0.005;
20190908_141550;0.247;9.278;-2.531;-0.001;-0.002;-0.006;
20190908_141550;0.235;9.359;-2.677;0.015;-0.002;-0.003;
20190908_141550;0.223;9.103;-2.607;-0.004;0.000;-0.003;
20190908_141550;0.278;9.196;-2.672;0.004;-0.002;-0.003;
20190908_141550;0.235;9.148;-2.624;-0.014;-0.001;-0.000;
20190908_141550;0.302;9.165;-2.562;-0.001;0.000;0.001;
20190908_141550;0.247;9.244;-2.622;-0.015;0.001;0.002;
20190908_141550;0.292;9.275;-2.583;-0.013;0.004;0.006;
20190908_141550;0.280;9.282;-2.658;-0.014;0.002;0.005;
20190908_141551;0.271;9.342;-2.658;-0.014;0.001;0.005;
20190908_141551;0.304;9.488;-2.638;-0.012;0.002;0.005;
20190908_141551;0.275;9.239;-2.480;-0.008;0.002;0.004;
20190908_141551;0.302;9.342;-2.643;-0.004;0.001;0.003;
20190908_141551;0.448;9.163;-2.559;-0.006;0.002;0.003;
20190908_141551;0.409;9.275;-2.526;-0.007;0.002;0.003;
20190908_141551;0.402;9.172;-2.626;-0.006;0.000;0.001;
20190908_141551;0.347;9.349;-2.607;0.002;0.000;-0.005;
20190908_141551;0.354;9.270;-2.591;-0.004;-0.001;-0.009;
20190908_141552;0.275;9.335;-2.535;0.003;-0.003;-0.013;
20190908_141552;0.237;9.366;-2.648;-0.011;-0.002;-0.012;
20190908_141552;0.235;9.318;-2.490;-0.005;-0.003;-0.010;
20190908_141552;0.247;9.230;-2.571;-0.006;-0.002;-0.008;
20190908_141552;0.206;9.177;-2.571;-0.009;0.000;-0.002;
20190908_141552;0.122;9.187;-2.634;-0.003;0.000;0.002;
20190908_141552;0.342;9.349;-2.624;0.001;0.001;0.006;
20190908_141552;0.385;9.543;-2.602;0.001;0.003;0.008;
20190908_141552;0.443;9.558;-2.643;-0.001;0.001;0.007;
20190908_141552;0.345;9.601;-2.729;-0.009;0.002;0.004;
20190908_141553;0.390;9.541;-2.614;-0.003;0.001;0.003;
20190908_141553;0.340;9.653;-2.756;-0.001;0.002;0.002;
20190908_141553;0.263;9.649;-2.720;-0.004;-0.001;-0.003;
20190908_141553;0.304;9.728;-2.761;-0.003;0.000;-0.005;
20190908_141553;0.285;9.515;-2.684;-0.004;0.001;-0.004;
20190908_141553;0.239;9.598;-2.693;-0.006;-0.001;-0.004;
20190908_141553;0.321;9.416;-2.715;-0.003;0.000;-0.006;
20190908_141553;0.340;9.448;-2.655;-0.001;0.000;-0.005;
20190908_141553;0.127;9.378;-2.605;-0.010;-0.002;-0.008;
20190908_141554;0.060;9.395;-2.634;-0.007;0.000;-0.005;
20190908_141554;0.067;9.290;-2.583;-0.006;0.001;-0.004;
20190908_141554;0.134;9.380;-2.677;-0.009;-0.002;-0.002;
20190908_141554;0.235;9.462;-2.684;-0.011;0.000;-0.001;
20190908_141554;0.383;9.594;-2.693;-0.000;0.000;-0.001;
20190908_141554;0.237;9.366;-2.715;-0.004;0.000;-0.004;
20190908_141554;0.254;9.486;-2.670;-0.004;0.000;-0.002;
20190908_141554;0.132;9.500;-2.543;-0.009;0.002;-0.002;
20190908_141554;0.215;9.481;-2.648;-0.004;0.000;-0.002;
20190908_141554;0.201;9.345;-2.643;-0.005;-0.001;-0.003;
20190908_141555;0.220;9.400;-2.672;-0.001;-0.001;-0.001;
20190908_141555;0.172;9.459;-2.607;-0.007;-0.001;-0.003;
20190908_141555;0.311;9.337;-2.638;-0.011;-0.001;-0.004;
20190908_141555;0.263;9.464;-2.638;-0.028;0.000;-0.003;
20190908_141555;0.108;9.234;-2.461;-0.017;0.001;-0.003;
20190908_141555;0.108;9.110;-2.500;-0.015;0.002;-0.001;
20190908_141555;0.206;9.191;-2.547;-0.008;0.000;-0.000;
20190908_141555;0.144;9.165;-2.567;-0.010;0.000;0.004;
20190908_141555;0.227;9.141;-2.389;-0.016;0.000;-0.000;
20190908_141556;0.362;9.301;-2.612;-0.013;0.002;0.002;
20190908_141556;0.316;9.151;-2.394;-0.007;0.004;-0.001;
20190908_141556;0.366;9.311;-2.423;0.002;0.000;-0.000;
20190908_141556;0.433;9.266;-2.533;0.005;-0.002;-0.003;
20190908_141556;0.266;9.512;-2.512;0.002;0.000;-0.001;
20190908_141556;0.266;9.364;-2.411;-0.007;0.000;-0.002;
20190908_141556;0.244;9.275;-2.526;-0.021;0.001;-0.001;
20190908_141556;0.091;9.438;-2.449;-0.013;0.000;0.002;
20190908_141556;0.220;9.263;-2.409;-0.013;0.002;0.002;
20190908_141556;0.419;9.419;-2.500;-0.009;0.002;0.004;
20190908_141557;0.438;9.426;-2.591;-0.005;0.001;0.003;
20190908_141557;0.412;9.270;-2.567;0.007;-0.001;-0.000;
20190908_141557;0.323;9.309;-2.490;-0.003;0.001;0.001;
20190908_141557;0.074;9.139;-2.428;0.008;-0.003;-0.004;
20190908_141557;0.292;9.225;-2.423;-0.000;0.000;-0.004;
20190908_141557;0.110;9.282;-2.540;0.005;0.001;-0.001;
20190908_141557;0.098;9.337;-2.564;-0.001;0.000;-0.004;
20190908_141557;0.278;9.208;-2.512;0.004;-0.001;-0.003;
20190908_141557;0.321;9.419;-2.837;0.005;-0.001;-0.000;
20190908_141558;0.280;9.294;-2.428;-0.008;0.001;-0.000;
20190908_141558;0.201;9.251;-2.502;0.004;-0.003;-0.000;
20190908_141558;0.266;9.419;-2.643;-0.003;-0.003;-0.001;
20190908_141558;0.304;9.208;-2.526;-0.004;0.001;-0.002;
20190908_141558;0.199;9.189;-2.380;0.009;0.000;-0.002;
20190908_141558;0.215;9.254;-2.555;0.012;-0.001;-0.003;
20190908_141558;0.034;9.278;-2.677;-0.011;0.002;-0.000;
20190908_141558;0.187;9.254;-2.634;0.001;0.000;0.001;
20190908_141558;0.168;9.426;-2.602;0.032;0.002;-0.001;
20190908_141558;0.225;9.225;-2.648;-0.008;-0.003;-0.002;
20190908_141559;0.000;9.153;-2.571;-0.015;-0.003;-0.000;
20190908_141559;0.283;9.285;-2.531;0.013;-0.002;-0.000;
20190908_141559;0.290;9.141;-2.423;-0.017;0.001;0.002;
20190908_141559;0.160;9.067;-2.382;-0.013;0.000;-0.000;
20190908_141559;0.266;9.167;-2.641;0.016;-0.001;0.001;
20190908_141559;0.045;9.242;-2.523;-0.018;0.000;-0.000;
20190908_141559;0.244;9.285;-2.713;0.010;0.001;-0.000;
20190908_141559;0.127;9.184;-2.557;0.011;-0.001;-0.003;
20190908_141559;0.084;9.187;-2.605;0.007;-0.002;-0.004;
20190908_141600;0.036;9.340;-2.543;-0.026;-0.002;-0.004;
20190908_141600;0.187;8.938;-2.401;-0.015;-0.002;-0.004;
20190908_141600;0.239;9.237;-2.863;0.003;0.000;-0.001;
20190908_141600;0.065;9.074;-2.471;-0.007;0.001;-0.002;
20190908_141600;0.244;9.139;-2.595;-0.016;-0.001;-0.003;
20190908_141600;0.369;9.091;-2.564;0.003;-0.003;-0.004;
20190908_141600;0.304;9.328;-2.557;-0.024;-0.005;-0.009;
20190908_141600;0.441;9.438;-2.976;-0.015;-0.009;-0.010;
20190908_141600;0.345;9.218;-2.370;-0.010;-0.001;-0.002;
20190908_141601;0.318;9.172;-2.847;0.006;-0.002;-0.001;
20190908_141601;0.148;9.263;-2.557;0.001;0.001;-0.001;
20190908_141601;0.124;9.275;-2.600;-0.009;0.000;0.001;
20190908_141601;0.129;9.390;-2.593;0.003;0.001;0.001;
20190908_141601;0.177;9.407;-2.622;-0.003;0.000;0.002;
20190908_141601;0.213;9.404;-2.787;-0.007;0.000;0.004;
20190908_141601;0.220;9.304;-2.636;-0.006;0.001;0.004;
20190908_141601;0.211;9.380;-2.583;-0.011;0.000;0.002;
20190908_141601;0.081;9.428;-2.682;-0.004;0.000;0.002;
20190908_141601;0.256;9.534;-2.720;-0.010;0.001;-0.000;
20190908_141602;0.127;9.424;-2.717;-0.001;0.001;-0.002;
20190908_141602;0.232;9.436;-2.593;-0.011;0.000;-0.003;
20190908_141602;0.290;9.409;-2.682;-0.001;-0.002;-0.004;
20190908_141602;0.192;9.424;-2.571;-0.010;0.001;-0.001;
20190908_141602;0.256;9.428;-2.761;0.001;0.000;0.002;
20190908_141602;0.115;9.196;-2.612;-0.006;0.001;-0.000;
20190908_141602;0.170;9.424;-2.631;-0.004;0.002;0.002;
20190908_141602;0.096;9.251;-2.392;-0.006;0.001;0.001;
20190908_141602;0.074;9.342;-2.555;-0.010;-0.001;-0.001;
20190908_141602;0.297;9.412;-2.552;-0.003;0.000;0.003;
20190908_141603;0.036;9.258;-2.576;0.003;0.002;-0.000;
20190908_141603;0.182;9.261;-2.713;0.002;-0.001;-0.001;
20190908_141603;0.196;9.256;-2.624;-0.013;0.000;-0.001;
20190908_141603;0.151;9.285;-2.708;-0.004;-0.001;-0.002;
20190908_141603;0.184;9.249;-2.595;-0.005;0.000;-0.004;
20190908_141603;0.141;9.175;-2.547;-0.010;-0.001;-0.004;
20190908_141603;0.211;9.208;-2.610;-0.004;0.000;-0.004;
20190908_141603;0.113;9.182;-2.588;0.002;-0.002;-0.005;
20190908_141603;0.182;9.165;-2.612;0.001;-0.001;-0.005;
20190908_141604;0.184;9.189;-2.641;-0.000;0.001;-0.004;
20190908_141604;0.199;9.282;-2.579;0.007;0.000;-0.004;
20190908_141604;0.335;9.256;-2.605;-0.004;0.001;-0.001;
20190908_141604;0.201;9.249;-2.708;-0.010;0.000;-0.001;
20190908_141604;0.196;9.426;-2.816;0.005;0.000;0.001;
20190908_141604;0.218;9.103;-2.452;0.003;0.000;-0.000;
20190908_141604;0.275;9.234;-2.660;-0.005;0.000;-0.000;
20190908_141604;0.069;8.985;-2.643;-0.003;-0.001;0.001;
20190908_141604;0.268;9.366;-2.437;-0.008;0.002;0.003;
20190908_141605;0.098;9.052;-2.500;-0.011;0.002;-0.000;
20190908_141605;0.294;9.318;-2.844;-0.009;0.000;-0.000;
20190908_141605;0.019;9.297;-2.626;-0.006;-0.002;-0.001;
20190908_141605;0.263;9.273;-2.672;0.008;-0.002;0.001;
20190908_141605;0.192;9.323;-2.586;-0.011;0.002;0.001;
20190908_141605;0.362;9.550;-2.811;-0.012;0.001;-0.000;
20190908_141605;0.144;9.352;-2.547;-0.004;-0.002;-0.004;
20190908_141605;0.402;9.517;-2.682;-0.005;-0.001;-0.001;
20190908_141605;0.105;9.220;-2.581;0.002;-0.002;-0.003;
20190908_141605;0.297;9.438;-2.823;-0.006;-0.001;-0.002;
20190908_141606;0.168;9.364;-2.749;-0.006;0.000;-0.002;
20190908_141606;0.182;9.201;-2.535;-0.015;0.000;-0.002;
20190908_141606;0.402;9.591;-3.002;0.009;-0.001;-0.000;
20190908_141606;0.294;9.337;-2.638;-0.008;0.000;-0.001;
20190908_141606;0.117;9.364;-2.677;-0.007;-0.002;-0.004;
20190908_141606;0.306;9.301;-2.504;0.015;-0.001;-0.003;
20190908_141606;0.268;9.282;-2.557;0.003;-0.003;-0.003;
20190908_141606;0.204;9.364;-2.746;-0.004;-0.001;-0.002;
20190908_141606;0.184;9.328;-2.749;-0.001;-0.002;-0.001;
20190908_141607;0.201;9.333;-2.806;-0.011;-0.001;-0.001;
20190908_141607;0.299;9.459;-2.816;-0.011;0.000;-0.002;
20190908_141607;0.148;9.299;-2.796;0.010;-0.002;-0.002;
20190908_141607;0.340;9.431;-2.701;0.008;-0.002;-0.002;
20190908_141607;0.290;9.426;-2.109;-0.014;0.010;-0.001;
20190908_141607;0.213;9.565;-2.916;-0.006;-0.001;-0.002;
20190908_141607;0.024;9.455;-2.787;0.038;-0.010;-0.005;
20190908_141607;0.244;9.270;-2.339;-0.020;0.000;-0.005;
20190908_141607;0.043;9.127;-2.787;-0.000;-0.005;-0.009;
20190908_141607;-0.108;9.141;-2.272;-0.038;-0.003;-0.010;
20190908_141608;0.115;9.206;-3.194;0.033;-0.010;-0.002;
20190908_141608;0.345;9.337;-3.086;0.012;-0.001;0.004;
20190908_141608;0.211;9.282;-2.983;-0.000;0.000;0.001;
20190908_141608;0.342;9.239;-2.717;-0.008;-0.001;-0.000;
20190908_141608;0.256;9.251;-2.825;-0.006;0.000;-0.001;
20190908_141608;0.232;9.172;-2.670;-0.005;-0.002;-0.002;
20190908_141608;0.165;9.361;-2.964;0.005;0.000;0.001;
20190908_141608;0.227;9.359;-2.880;0.008;-0.001;-0.002;
20190908_141608;0.091;9.325;-2.930;-0.001;-0.001;-0.003;
20190908_141609;0.062;9.297;-2.914;-0.020;-0.003;-0.004;
20190908_141609;0.280;9.469;-2.885;-0.005;-0.003;-0.002;
20190908_141609;0.196;9.273;-2.916;-0.008;0.001;-0.000;
20190908_141609;0.148;9.136;-3.012;-0.049;0.014;0.005;
20190908_141609;0.306;9.414;-3.203;-0.010;-0.001;-0.002;
20190908_141609;0.175;9.371;-2.911;-0.011;0.002;-0.000;
20190908_141609;0.134;9.455;-2.646;-0.031;0.002;-0.002;
20190908_141609;0.225;9.522;-3.024;-0.001;0.001;0.001;
20190908_141609;0.180;9.270;-2.825;-0.007;-0.002;-0.003;
20190908_141609;0.271;9.306;-2.847;-0.012;0.002;0.002;
20190908_141610;0.005;9.045;-2.734;-0.027;0.000;0.001;
20190908_141610;0.180;9.335;-2.909;-0.039;-0.001;0.003;
20190908_141610;0.124;9.325;-2.564;-0.081;0.004;0.002;
20190908_141610;0.223;9.486;-2.545;-0.172;0.001;0.004;
20190908_141610;0.271;9.658;-2.334;-0.167;0.004;0.008;
20190908_141610;0.292;9.486;-2.239;-0.029;0.005;-0.002;
20190908_141610;0.187;9.397;-2.222;0.026;-0.002;-0.003;
20190908_141610;0.266;9.347;-2.437;0.017;0.000;-0.003;
20190908_141610;0.271;9.522;-2.425;0.015;0.004;0.001;
20190908_141611;0.235;9.627;-2.413;-0.013;0.002;-0.002;
20190908_141611;0.385;9.493;-2.430;-0.003;-0.001;-0.005;
20190908_141611;0.299;9.538;-2.454;0.004;-0.001;-0.006;
20190908_141611;0.220;9.359;-2.370;0.022;-0.004;-0.010;
20190908_141611;0.273;9.416;-2.452;0.019;-0.004;-0.008;
20190908_141611;0.311;9.505;-2.512;-0.007;-0.001;-0.004;
20190908_141611;0.172;9.100;-2.495;-0.014;-0.003;-0.005;
20190908_141611;0.211;9.452;-2.370;-0.014;0.001;-0.002;
20190908_141611;0.204;9.500;-2.430;-0.003;0.000;-0.001;
20190908_141611;0.259;9.313;-2.442;0.002;0.000;0.001;
20190908_141612;0.196;9.325;-2.492;0.004;-0.002;-0.002;
20190908_141612;0.199;9.574;-2.399;0.025;0.000;0.002;
20190908_141612;0.201;9.457;-2.533;0.056;-0.006;-0.004;
20190908_141612;0.136;9.517;-2.840;0.209;0.000;-0.008;
20190908_141612;0.237;9.273;-2.904;0.024;-0.005;-0.000;
20190908_141612;0.357;9.503;-2.890;-0.000;-0.001;-0.001;
20190908_141612;0.194;9.160;-2.662;-0.007;0.000;-0.003;
20190908_141612;0.290;9.385;-2.842;-0.032;0.000;-0.001;
20190908_141612;0.177;9.328;-2.727;-0.048;0.000;-0.000;
20190908_141613;0.235;9.428;-2.744;-0.038;0.000;-0.001;
20190908_141613;0.297;9.519;-2.813;-0.006;0.000;0.001;
20190908_141613;0.048;9.237;-2.667;-0.010;0.000;-0.002;
20190908_141613;0.182;9.392;-2.847;-0.012;-0.001;-0.001;
20190908_141613;0.261;9.476;-2.739;0.001;-0.001;-0.000;
20190908_141613;0.184;9.342;-2.629;-0.014;0.000;-0.002;
20190908_141613;0.213;9.455;-2.696;-0.006;-0.002;-0.001;
20190908_141613;0.091;9.251;-2.595;-0.004;-0.003;-0.005;
20190908_141613;0.201;9.459;-2.789;-0.026;0.000;-0.003;
20190908_141614;0.091;9.254;-2.598;-0.006;0.000;-0.003;
20190908_141614;0.120;9.349;-2.672;-0.013;-0.001;-0.004;
20190908_141614;0.230;9.266;-2.552;-0.012;0.001;-0.003;
20190908_141614;0.139;9.220;-2.605;-0.017;-0.001;-0.004;
20190908_141614;0.306;9.285;-2.667;-0.022;0.001;-0.001;
20190908_141614;0.096;9.263;-2.557;0.004;-0.003;-0.004;
20190908_141614;0.347;9.538;-2.648;-0.012;-0.001;-0.003;
20190908_141614;0.227;9.318;-2.634;-0.003;-0.001;-0.005;
20190908_141614;0.160;9.187;-2.523;-0.009;-0.002;-0.004;
20190908_141614;0.268;9.335;-2.533;-0.013;0.000;-0.001;
20190908_141615;0.347;9.436;-2.550;0.006;-0.001;-0.000;
20190908_141615;0.268;9.206;-2.619;0.011;-0.001;-0.000;
20190908_141615;0.182;9.242;-2.277;-0.122;0.001;0.005;
20190908_141615;0.117;9.256;-2.461;0.024;0.001;0.002;
20190908_141615;0.101;9.165;-2.485;-0.011;-0.003;0.001;
20190908_141615;0.244;9.275;-2.480;0.019;-0.001;-0.000;
20190908_141615;0.096;9.328;-2.607;0.001;0.000;0.002;
20190908_141615;0.223;9.340;-2.672;-0.003;-0.002;-0.002;
20190908_141615;0.292;9.527;-2.629;0.007;-0.001;-0.004;
20190908_141616;0.227;9.261;-2.425;-0.031;-0.002;-0.004;
20190908_141616;0.247;9.244;-2.672;0.007;-0.002;-0.003;
20190908_141616;0.369;9.414;-2.658;0.001;-0.001;-0.000;
20190908_141616;0.213;9.199;-2.557;0.007;-0.001;-0.004;
20190908_141616;0.330;9.306;-2.612;-0.004;-0.002;-0.002;
20190908_141616;0.208;9.232;-2.452;-0.011;-0.001;-0.004;
20190908_141616;0.278;9.419;-2.610;-0.005;0.000;-0.004;
20190908_141616;0.175;9.225;-2.437;-0.004;0.002;-0.002;
20190908_141616;0.163;9.392;-2.641;-0.009;-0.002;-0.003;
20190908_141616;0.069;9.086;-2.466;-0.005;0.002;-0.002;
20190908_141617;0.153;9.342;-2.543;-0.010;-0.001;-0.001;
20190908_141617;0.292;9.160;-2.437;-0.018;0.000;-0.002;
20190908_141617;0.230;9.242;-2.387;-0.010;0.001;-0.002;
20190908_141617;0.251;9.172;-2.564;0.004;-0.001;-0.004;
20190908_141617;0.237;9.017;-2.416;0.004;-0.002;-0.005;
20190908_141617;0.034;9.007;-2.466;-0.004;0.000;-0.000;
20190908_141617;0.338;9.148;-2.413;-0.000;0.000;-0.000;
20190908_141617;0.247;9.026;-2.557;0.007;0.003;0.007;
20190908_141617;0.215;9.321;-2.461;-0.004;0.003;0.007;
20190908_141618;0.266;9.000;-2.545;-0.008;0.001;0.004;
20190908_141618;0.268;9.390;-2.365;-0.004;0.000;0.002;
20190908_141618;0.242;9.414;-2.483;0.004;0.001;-0.000;
20190908_141618;0.163;9.215;-2.370;-0.003;0.000;-0.000;
20190908_141618;0.232;9.239;-2.476;-0.006;0.001;-0.002;
20190908_141618;0.144;9.222;-2.473;0.005;-0.002;-0.002;
20190908_141618;0.081;9.313;-2.495;-0.000;-0.002;-0.002;
20190908_141618;0.180;8.933;-2.528;-0.003;0.000;-0.001;
20190908_141618;0.280;9.292;-2.538;-0.004;-0.001;0.002;
20190908_141619;0.302;9.172;-2.547;-0.000;0.000;0.004;
20190908_141619;0.151;8.950;-2.413;-0.008;0.001;0.002;
20190908_141619;0.089;9.000;-2.418;-0.009;0.001;0.003;
20190908_141619;0.359;9.325;-2.476;-0.007;0.000;0.001;
20190908_141619;0.115;9.007;-2.330;-0.004;-0.001;-0.001;
20190908_141619;0.230;9.627;-2.519;-0.008;-0.001;-0.000;
20190908_141619;0.170;9.031;-2.354;-0.000;-0.003;-0.005;
20190908_141619;0.359;9.321;-2.634;-0.004;-0.001;-0.004;
20190908_141619;0.165;9.069;-2.346;-0.007;0.000;-0.003;
20190908_141619;0.206;9.246;-2.440;-0.014;-0.001;-0.002;
20190908_141620;0.256;9.117;-2.449;-0.006;-0.002;-0.003;
20190908_141620;0.120;9.029;-2.409;-0.010;-0.002;-0.004;
20190908_141620;0.077;9.050;-2.543;-0.006;-0.001;-0.001;
20190908_141620;0.204;9.103;-2.387;-0.007;-0.001;-0.001;
20190908_141620;0.393;9.201;-2.574;-0.011;-0.001;-0.000;
20190908_141620;0.086;9.031;-2.543;-0.007;0.000;0.003;
20190908_141620;0.180;9.196;-2.444;-0.001;-0.001;0.002;
20190908_141620;0.096;9.012;-2.550;-0.007;0.000;0.005;
20190908_141620;0.134;9.079;-2.473;-0.020;0.002;0.006;
20190908_141621;0.165;8.940;-2.523;-0.001;-0.001;0.005;
20190908_141621;0.290;9.143;-2.500;-0.012;0.000;0.005;
20190908_141621;0.304;9.407;-2.631;-0.008;-0.003;0.001;
20190908_141621;0.256;9.191;-2.466;-0.014;0.007;0.002;
20190908_141621;0.321;9.129;-2.643;-0.014;-0.002;-0.002;
20190908_141621;0.189;8.851;-2.322;-0.009;0.000;-0.003;
20190908_141621;0.151;9.062;-2.363;-0.014;-0.002;-0.003;
20190908_141621;0.129;8.964;-2.497;-0.009;-0.001;-0.002;
20190908_141621;0.136;9.177;-2.492;-0.001;-0.001;-0.002;
20190908_141621;0.187;9.009;-2.464;-0.016;0.000;-0.001;
20190908_141622;0.163;9.199;-2.466;-0.014;0.000;0.001;
20190908_141622;0.215;9.129;-2.507;-0.008;-0.002;-0.002;
20190908_141622;0.189;9.112;-2.418;-0.008;0.002;-0.002;
20190908_141622;0.057;8.734;-2.315;-0.014;0.001;-0.001;
20190908_141622;0.151;8.978;-2.476;-0.009;-0.001;-0.000;
20190908_141622;0.129;8.830;-2.413;-0.014;0.002;0.005;
20190908_141622;0.113;8.997;-2.255;-0.018;0.003;0.002;
20190908_141622;0.249;8.983;-2.344;-0.016;0.002;0.002;
20190908_141622;0.192;9.069;-2.488;-0.011;0.000;0.002;
20190908_141623;0.177;8.954;-2.394;-0.005;0.001;0.001;
20190908_141623;0.156;8.835;-2.389;-0.009;0.004;0.002;
20190908_141623;0.096;9.052;-2.452;-0.007;0.000;-0.001;
20190908_141623;0.318;8.954;-2.397;-0.007;-0.001;-0.001;
20190908_141623;0.098;8.995;-2.485;-0.004;-0.001;0.002;
20190908_141623;0.256;9.052;-2.413;-0.006;-0.002;0.001;
20190908_141623;0.259;9.148;-2.468;-0.007;-0.002;0.001;
20190908_141623;0.175;9.110;-2.521;-0.007;0.002;0.002;
20190908_141623;0.182;8.930;-2.375;-0.006;-0.002;-0.000;
20190908_141623;0.177;9.048;-2.392;-0.009;0.000;0.004;
20190908_141624;0.089;8.866;-2.365;-0.006;-0.001;0.003;
20190908_141624;0.194;9.266;-2.579;-0.003;0.000;0.005;
20190908_141624;0.165;9.199;-2.535;-0.005;0.003;0.007;
20190908_141624;0.302;9.158;-2.514;-0.003;0.000;0.002;
20190908_141624;0.189;8.981;-2.480;-0.005;0.001;0.002;
20190908_141624;0.057;9.210;-2.428;-0.006;-0.002;0.002;
20190908_141624;0.136;9.232;-2.521;-0.003;-0.001;0.002;
20190908_141624;0.172;9.282;-2.545;-0.008;0.000;0.001;
20190908_141624;0.129;9.153;-2.507;-0.009;-0.001;-0.001;
20190908_141624;0.117;9.246;-2.488;-0.009;-0.002;-0.002;
20190908_141625;0.113;9.213;-2.631;-0.001;-0.001;-0.004;
20190908_141625;0.113;9.306;-2.531;-0.004;-0.001;-0.003;
20190908_141625;0.151;9.297;-2.595;-0.006;-0.002;-0.004;
20190908_141625;0.086;9.222;-2.444;-0.010;-0.002;-0.005;
20190908_141625;0.132;9.352;-2.600;-0.011;0.000;-0.000;
20190908_141625;0.163;9.297;-2.543;-0.006;0.000;0.001;
20190908_141625;0.012;9.354;-2.509;-0.006;-0.001;0.002;
20190908_141625;0.156;8.827;-2.425;-0.010;0.000;0.002;
20190908_141625;0.285;9.275;-2.631;-0.005;-0.001;0.003;
20190908_141626;0.237;9.100;-2.497;0.001;0.000;0.001;
20190908_141626;0.132;9.304;-2.576;0.002;-0.002;-0.003;
20190908_141626;0.113;9.280;-2.567;-0.004;-0.002;-0.005;
20190908_141626;0.180;9.380;-2.605;0.002;-0.003;-0.009;
20190908_141626;0.204;9.309;-2.591;-0.006;-0.002;-0.005;
20190908_141626;0.098;9.158;-2.614;-0.005;-0.002;-0.006;
20190908_141626;0.091;9.017;-2.562;-0.009;-0.001;-0.004;
20190908_141626;0.086;9.285;-2.483;-0.006;-0.001;-0.002;
20190908_141626;0.105;9.165;-2.547;-0.011;0.000;-0.001;
20190908_141626;0.113;9.050;-2.579;-0.000;-0.003;-0.004;
20190908_141627;0.129;9.273;-2.476;-0.006;0.000;-0.002;
20190908_141627;0.182;9.167;-2.557;-0.005;-0.002;-0.001;
20190908_141627;0.148;9.203;-2.521;-0.005;-0.004;-0.002;
20190908_141627;0.129;9.189;-2.557;-0.006;-0.001;-0.001;
20190908_141627;0.043;9.220;-2.480;-0.012;-0.002;-0.004;
20190908_141627;0.127;9.194;-2.476;-0.010;-0.003;-0.006;
20190908_141627;0.239;9.263;-2.564;-0.004;-0.001;-0.004;
20190908_141627;0.031;9.021;-2.485;-0.005;-0.001;-0.003;
20190908_141627;0.172;9.390;-2.512;-0.006;0.000;-0.001;
20190908_141628;0.091;9.352;-2.500;-0.005;-0.002;-0.000;
20190908_141628;0.223;9.448;-2.751;-0.003;0.000;0.002;
20190908_141628;0.170;9.287;-2.559;-0.000;0.000;0.001;
20190908_141628;0.223;9.378;-2.619;-0.006;-0.003;-0.005;
20190908_141628;0.223;9.208;-2.521;-0.005;-0.003;-0.005;
20190908_141628;0.189;9.237;-2.653;-0.004;-0.002;-0.005;
20190908_141628;0.206;9.369;-2.638;-0.007;-0.003;-0.003;
20190908_141628;0.326;9.242;-2.500;-0.005;-0.004;-0.004;
20190908_141628;0.388;9.515;-2.705;-0.007;-0.001;-0.002;
20190908_141629;0.067;8.890;-2.430;-0.008;-0.002;-0.005;
20190908_141629;0.297;9.407;-2.545;-0.008;-0.002;-0.005;
20190908_141629;0.156;9.436;-2.512;-0.009;0.000;-0.003;
20190908_141629;0.175;9.239;-2.550;-0.003;-0.002;-0.004;
20190908_141629;0.151;9.148;-2.696;-0.006;-0.001;-0.001;
20190908_141629;0.235;9.297;-2.488;-0.004;-0.002;-0.004;
20190908_141629;0.180;9.323;-2.543;-0.009;-0.001;-0.004;
20190908_141629;0.261;9.194;-2.672;-0.006;-0.002;-0.002;
20190908_141629;0.247;9.316;-2.559;-0.006;0.001;-0.002;
20190908_141629;0.369;9.357;-2.588;-0.004;0.000;-0.000;
20190908_141630;0.163;9.287;-2.504;-0.012;0.000;-0.001;
20190908_141630;0.187;9.208;-2.653;-0.005;-0.001;0.002;
20190908_141630;0.213;9.242;-2.461;-0.004;-0.001;0.003;
20190908_141630;0.297;9.234;-2.574;-0.011;0.000;0.006;
20190908_141630;0.232;9.189;-2.576;-0.005;0.001;0.004;
20190908_141630;0.292;9.088;-2.569;-0.005;0.001;0.006;
20190908_141630;0.259;9.390;-2.619;-0.006;0.000;0.005;
20190908_141630;0.144;9.108;-2.461;-0.006;0.000;0.002;
20190908_141630;0.177;9.201;-2.571;-0.008;0.000;0.001;
20190908_141630;0.113;9.122;-2.421;-0.009;-0.001;-0.000;
20190908_141631;0.254;9.246;-2.605;-0.004;0.000;0.001;
20190908_141631;0.103;9.220;-2.629;-0.007;0.001;0.003;
20190908_141631;0.242;9.290;-2.617;-0.007;0.000;0.002;
20190908_141631;0.213;9.304;-2.638;-0.008;0.001;0.003;
20190908_141631;0.227;9.146;-2.614;-0.007;0.000;-0.000;
20190908_141631;0.271;9.412;-2.732;-0.006;0.001;0.001;
20190908_141631;0.237;9.385;-2.574;-0.007;0.001;-0.000;
20190908_141631;0.127;9.194;-2.605;-0.006;0.000;-0.003;
20190908_141631;0.158;9.062;-2.559;-0.012;-0.002;-0.003;
20190908_141632;0.182;9.191;-2.562;-0.013;-0.002;-0.000;
20190908_141632;0.153;9.242;-2.581;-0.007;0.001;0.001;
20190908_141632;0.297;9.354;-2.567;0.001;-0.001;-0.001;
20190908_141632;0.206;9.469;-2.614;-0.006;0.000;-0.003;
20190908_141632;0.053;9.287;-2.634;-0.009;-0.001;-0.003;
20190908_141632;0.141;9.155;-2.567;-0.008;-0.002;-0.002;
20190908_141632;0.220;9.220;-2.557;-0.004;0.000;-0.001;
20190908_141632;0.187;9.258;-2.619;-0.006;-0.001;-0.003;
20190908_141632;0.184;9.194;-2.658;-0.006;-0.001;-0.002;
20190908_141633;0.362;9.402;-2.562;-0.001;-0.001;-0.002;
20190908_141633;0.225;9.292;-2.555;-0.005;0.000;-0.003;
20190908_141633;0.180;9.538;-2.734;-0.003;0.000;-0.001;
20190908_141633;0.136;9.218;-2.634;-0.003;-0.001;-0.001;
20190908_141633;0.189;9.500;-2.691;-0.003;-0.001;-0.001;
20190908_141633;0.084;9.543;-2.674;0.001;0.001;0.003;
20190908_141633;0.232;9.428;-2.698;-0.003;0.000;-0.000;
20190908_141633;0.067;9.483;-2.739;-0.000;-0.001;-0.002;
20190908_141633;0.215;9.538;-2.844;0.001;-0.001;-0.003;
20190908_141633;0.196;9.498;-2.739;-0.000;-0.003;-0.005;
20190908_141634;0.201;9.615;-2.646;0.001;-0.003;-0.008;
20190908_141634;0.098;9.527;-2.840;-0.000;-0.001;-0.004;
20190908_141634;0.180;9.728;-2.768;0.002;-0.002;-0.005;
20190908_141634;0.192;9.656;-2.828;-0.007;-0.001;-0.003;
20190908_141634;0.263;9.840;-2.840;0.001;-0.002;-0.003;
20190908_141634;0.201;9.615;-2.808;-0.006;-0.001;-0.003;
20190908_141634;0.101;9.735;-2.875;-0.004;-0.003;-0.004;
20190908_141634;0.189;9.955;-2.938;-0.004;-0.003;-0.002;
20190908_141634;0.273;9.730;-2.902;-0.004;-0.003;-0.001;
20190908_141634;0.249;9.732;-2.904;-0.006;-0.001;0.001;
20190908_141635;0.235;9.845;-2.792;-0.001;-0.001;-0.001;
20190908_141635;0.204;9.730;-2.863;-0.005;-0.002;-0.001;
20190908_141635;0.206;9.838;-2.988;-0.000;-0.002;-0.000;
20190908_141635;0.232;9.936;-2.796;-0.006;0.001;0.002;
20190908_141635;0.196;9.766;-2.842;-0.006;-0.002;0.002;
20190908_141635;0.223;9.799;-2.873;0.001;-0.002;0.002;
20190908_141635;0.211;9.862;-2.902;-0.004;-0.001;0.001;
20190908_141635;0.275;9.752;-2.866;-0.005;-0.002;-0.001;
20190908_141635;0.259;9.809;-2.890;-0.001;0.000;0.002;
20190908_141636;0.113;9.562;-2.765;-0.006;-0.001;-0.001;
20190908_141636;0.333;9.776;-2.895;0.001;0.000;0.001;
20190908_141636;0.189;9.759;-2.871;-0.006;-0.001;-0.000;
20190908_141636;0.239;9.685;-2.799;0.001;0.000;-0.000;
20190908_141636;0.215;9.670;-2.873;-0.005;0.000;-0.000;
20190908_141636;0.316;9.737;-2.947;-0.001;0.000;0.001;
20190908_141636;0.218;9.819;-2.959;-0.004;0.000;0.003;
20190908_141636;0.189;9.697;-2.823;-0.006;-0.001;-0.002;
20190908_141636;0.220;9.768;-2.828;-0.001;-0.001;0.003;
20190908_141636;0.239;9.756;-2.859;-0.008;0.000;0.002;
20190908_141637;0.345;9.752;-2.852;-0.004;0.000;0.001;
20190908_141637;0.283;9.773;-2.840;-0.006;0.003;0.003;
20190908_141637;0.201;9.610;-2.794;0.003;-0.002;-0.001;
20190908_141637;0.187;9.694;-2.945;-0.006;0.000;-0.000;
20190908_141637;0.237;9.929;-3.005;-0.004;0.002;0.002;
20190908_141637;0.266;10.142;-3.038;-0.006;-0.002;0.001;
20190908_141637;0.168;10.144;-3.081;-0.005;0.001;0.002;
20190908_141637;0.163;10.381;-3.132;-0.000;0.004;0.006;
20190908_141637;0.108;10.240;-3.093;-0.013;-0.001;-0.000;
20190908_141638;0.259;10.302;-3.218;-0.000;0.000;0.002;
20190908_141638;0.136;10.053;-3.120;-0.010;0.001;-0.000;
20190908_141638;0.357;10.017;-3.074;-0.011;0.000;-0.001;
20190908_141638;0.141;9.723;-2.988;-0.011;-0.002;-0.002;
20190908_141638;0.247;9.665;-2.840;-0.006;0.001;0.001;
20190908_141638;0.175;9.634;-2.926;-0.011;0.001;-0.000;
20190908_141638;0.239;9.550;-2.818;-0.009;-0.001;-0.002;
20190908_141638;0.316;9.723;-2.914;-0.008;0.002;0.001;
20190908_141638;0.115;9.550;-2.806;-0.008;0.000;-0.000;
20190908_141638;0.187;9.646;-2.861;-0.008;-0.001;-0.000;
20190908_141639;0.192;9.589;-2.847;-0.011;0.001;0.001;
20190908_141639;0.256;9.541;-2.895;-0.004;0.001;-0.000;
20190908_141639;0.192;9.572;-2.885;-0.004;0.001;0.001;
20190908_141639;0.184;9.536;-2.926;-0.004;0.001;-0.001;
20190908_141639;0.215;9.670;-2.904;-0.003;0.001;0.001;
20190908_141639;0.237;9.589;-2.873;-0.008;0.001;0.001;
20190908_141639;0.249;9.608;-2.892;-0.006;0.000;0.003;
20190908_141639;0.242;9.656;-2.959;-0.004;0.001;0.002;
20190908_141639;0.211;9.486;-2.868;-0.004;0.001;0.001;
20190908_141639;0.266;9.766;-2.962;-0.005;0.002;0.002;
20190908_141640;0.249;9.663;-2.962;-0.005;0.001;-0.001;
20190908_141640;0.117;9.711;-2.971;-0.004;0.001;-0.002;
20190908_141640;0.263;9.776;-3.007;-0.009;0.001;-0.001;
20190908_141640;0.275;9.625;-3.053;-0.005;0.001;-0.002;
20190908_141640;0.180;9.673;-3.024;-0.005;0.002;-0.001;
20190908_141640;0.306;9.543;-3.029;-0.006;0.002;-0.000;
20190908_141640;0.192;9.629;-3.069;-0.004;0.000;-0.001;
20190908_141640;0.158;9.510;-2.993;-0.012;0.001;-0.001;
20190908_141640;0.352;9.831;-3.043;-0.003;0.002;0.001;
20190908_141640;0.275;9.598;-3.026;-0.006;0.001;-0.000;
20190908_141641;0.311;9.637;-3.091;-0.003;0.002;0.001;
20190908_141641;0.184;9.699;-3.134;-0.006;0.002;0.002;
20190908_141641;0.237;9.632;-3.074;-0.006;0.002;0.003;
20190908_141641;0.232;9.756;-3.148;-0.004;0.001;0.001;
20190908_141641;0.225;9.732;-3.156;-0.008;0.001;0.002;
20190908_141641;0.194;9.747;-3.033;-0.007;0.001;0.001;
20190908_141641;0.254;9.799;-3.139;-0.008;0.002;0.001;
20190908_141641;0.227;9.656;-3.084;-0.008;0.000;-0.000;
20190908_141641;0.230;9.708;-3.091;-0.010;0.000;-0.001;
20190908_141642;0.208;9.620;-3.148;-0.005;0.000;-0.000;
20190908_141642;0.163;9.632;-3.098;-0.007;0.000;-0.002;
20190908_141642;0.196;9.603;-3.136;-0.004;0.001;-0.001;
20190908_141642;0.122;9.625;-3.117;-0.004;0.000;-0.001;
20190908_141642;0.244;9.795;-3.151;-0.001;0.001;-0.000;
20190908_141642;0.204;9.661;-3.045;-0.005;0.001;-0.000;
20190908_141642;0.218;9.742;-3.187;-0.006;0.000;-0.001;
20190908_141642;0.199;9.493;-3.115;-0.009;-0.001;-0.001;
20190908_141642;0.259;9.778;-3.151;-0.003;0.000;-0.001;
20190908_141643;0.139;9.610;-3.098;-0.006;0.001;-0.001;
20190908_141643;0.244;9.668;-3.100;-0.004;-0.001;-0.001;
20190908_141643;0.225;9.541;-3.112;-0.007;0.001;-0.001;
20190908_141643;0.187;9.560;-3.112;-0.011;0.000;-0.002;
20190908_141643;0.273;9.649;-3.079;-0.005;-0.001;-0.000;
20190908_141643;0.261;9.567;-3.074;-0.007;0.000;-0.000;
20190908_141643;0.247;9.522;-3.093;-0.008;0.001;-0.001;
20190908_141643;0.268;9.613;-3.175;-0.007;0.000;-0.000;
20190908_141643;0.196;9.376;-3.007;-0.004;-0.001;-0.002;
20190908_141643;0.259;9.419;-3.139;-0.008;0.001;-0.000;
20190908_141644;0.192;9.438;-3.115;-0.007;0.000;0.001;
20190908_141644;0.227;9.493;-3.024;-0.008;0.001;0.001;
20190908_141644;0.187;9.471;-3.055;-0.004;0.000;-0.000;
20190908_141644;0.189;9.400;-3.053;-0.006;0.001;0.002;
20190908_141644;0.247;9.503;-3.060;-0.009;0.000;-0.000;
20190908_141644;0.211;9.330;-2.995;-0.001;0.001;-0.001;
20190908_141644;0.208;9.431;-3.098;-0.006;0.001;-0.002;
20190908_141644;0.251;9.397;-3.000;-0.006;0.001;-0.000;
20190908_141644;0.223;9.397;-3.019;-0.007;0.001;-0.000;
20190908_141645;0.206;9.421;-3.017;-0.004;0.001;-0.001;
20190908_141645;0.158;9.479;-3.041;-0.007;0.002;-0.000;
20190908_141645;0.180;9.440;-3.031;-0.004;-0.001;-0.002;
20190908_141645;0.223;9.452;-3.079;-0.005;-0.001;-0.003;
20190908_141645;0.139;9.471;-2.916;-0.008;0.001;-0.002;
20190908_141645;0.163;9.433;-2.981;-0.007;0.001;-0.001;
20190908_141645;0.314;9.416;-3.007;-0.008;-0.001;-0.001;
20190908_141645;0.232;9.448;-2.995;-0.005;0.001;-0.001;
20190908_141645;0.244;9.361;-2.988;-0.006;0.000;-0.001;
20190908_141645;0.278;9.419;-2.974;-0.004;0.001;-0.001;
20190908_141646;0.177;9.409;-2.990;-0.006;0.001;-0.000;
20190908_141646;0.168;9.438;-2.940;-0.006;0.000;-0.001;
20190908_141646;0.215;9.397;-2.950;-0.005;0.001;-0.000;
20190908_141646;0.218;9.495;-2.990;-0.004;0.001;0.002;
20190908_141646;0.201;9.500;-2.957;-0.009;0.001;-0.000;
20190908_141646;0.218;9.476;-2.988;-0.004;0.000;-0.000;
20190908_141646;0.168;9.589;-2.952;-0.011;0.000;-0.000;
20190908_141646;0.132;9.455;-2.959;-0.008;0.002;0.001;
20190908_141646;0.204;9.507;-2.983;-0.009;0.001;0.001;
20190908_141647;0.213;9.515;-2.940;-0.009;0.002;0.001;
20190908_141647;0.261;9.455;-2.969;-0.003;0.001;-0.001;
20190908_141647;0.223;9.555;-2.976;-0.003;-0.001;-0.001;
20190908_141647;0.204;9.512;-2.952;-0.005;0.000;-0.002;
20190908_141647;0.299;9.574;-2.974;-0.008;0.000;-0.002;
20190908_141647;0.187;9.615;-3.002;-0.006;-0.003;-0.005;
20190908_141647;0.242;9.629;-2.954;-0.007;0.000;-0.004;
20190908_141647;0.182;9.613;-2.919;-0.008;0.000;-0.002;
20190908_141647;0.220;9.641;-2.959;-0.007;0.000;-0.002;
20190908_141648;0.235;9.680;-2.969;-0.004;0.001;-0.003;
20190908_141648;0.172;9.685;-2.962;-0.009;0.000;-0.001;
20190908_141648;0.201;9.682;-2.957;-0.007;0.001;-0.000;
20190908_141648;0.201;9.718;-2.974;-0.007;0.001;0.001;
20190908_141648;0.177;9.632;-2.930;-0.007;0.001;0.002;
20190908_141648;0.194;9.622;-2.935;-0.006;0.000;0.002;
20190908_141648;0.254;9.582;-2.947;-0.008;0.000;-0.000;
20190908_141648;0.251;9.620;-2.909;-0.007;0.001;0.001;
20190908_141648;0.204;9.570;-2.911;-0.010;0.001;-0.001;
20190908_141648;0.201;9.527;-2.878;-0.006;0.000;-0.000;
20190908_141649;0.175;9.553;-2.904;-0.009;0.002;-0.000;
20190908_141649;0.148;9.445;-2.883;-0.007;0.000;-0.001;
20190908_141649;0.218;9.433;-2.823;-0.008;0.000;-0.001;
20190908_141649;0.187;9.376;-2.789;-0.007;0.000;-0.000;
20190908_141649;0.144;9.359;-2.784;-0.007;0.001;-0.001;
20190908_141649;0.199;9.306;-2.770;-0.007;0.001;-0.001;
20190908_141649;0.249;9.258;-2.804;-0.005;0.001;-0.000;
20190908_141649;0.148;9.270;-2.789;-0.007;0.000;-0.000;
20190908_141649;0.192;9.270;-2.761;-0.005;0.000;-0.000;
20190908_141650;0.194;9.275;-2.761;-0.003;0.001;-0.000;
20190908_141650;0.158;9.318;-2.796;-0.005;0.000;-0.000;
20190908_141650;0.153;9.285;-2.772;-0.005;0.001;-0.001;
20190908_141650;0.175;9.287;-2.792;-0.004;0.000;-0.001;
20190908_141650;0.160;9.246;-2.789;-0.004;0.001;-0.001;
20190908_141650;0.156;9.306;-2.801;-0.004;0.000;-0.000;
20190908_141650;0.215;9.256;-2.796;-0.004;0.000;-0.001;
20190908_141650;0.237;9.369;-2.765;-0.005;0.001;-0.000;
20190908_141650;0.132;9.323;-2.756;-0.004;0.000;-0.001;
20190908_141650;0.192;9.299;-2.689;-0.006;0.001;-0.001;
20190908_141651;0.165;9.321;-2.751;-0.006;-0.001;-0.001;
20190908_141651;0.196;9.337;-2.734;-0.004;0.001;-0.001;
20190908_141651;0.237;9.390;-2.808;-0.004;0.000;-0.002;
20190908_141651;0.180;9.383;-2.746;-0.001;0.000;-0.002;
20190908_141651;0.211;9.361;-2.744;-0.001;0.000;-0.002;
20190908_141651;0.172;9.371;-2.782;-0.003;-0.001;-0.002;
20190908_141651;0.235;9.402;-2.796;-0.004;-0.001;-0.002;
20190908_141651;0.215;9.373;-2.751;-0.003;0.000;-0.002;
20190908_141651;0.206;9.376;-2.780;-0.005;0.001;-0.001;
20190908_141652;0.201;9.378;-2.777;-0.003;0.000;-0.001;
20190908_141652;0.168;9.431;-2.775;-0.006;0.001;-0.001;
20190908_141652;0.182;9.414;-2.772;-0.003;0.001;-0.003;
20190908_141652;0.220;9.421;-2.796;-0.001;-0.001;-0.002;
20190908_141652;0.204;9.409;-2.763;-0.005;0.000;-0.001;
20190908_141652;0.194;9.416;-2.770;-0.001;0.000;-0.002;
20190908_141652;0.180;9.450;-2.777;-0.004;0.000;-0.000;
20190908_141652;0.196;9.452;-2.737;-0.004;-0.001;-0.003;
20190908_141652;0.132;9.515;-2.799;-0.004;-0.001;-0.002;
20190908_141653;0.201;9.507;-2.789;-0.006;0.000;-0.002;
20190908_141653;0.266;9.567;-2.780;-0.003;-0.001;-0.000;
20190908_141653;0.170;9.483;-2.796;-0.001;0.001;-0.000;
20190908_141653;0.225;9.450;-2.765;-0.003;0.000;-0.001;
20190908_141653;0.211;9.436;-2.761;-0.005;-0.001;-0.000;
20190908_141653;0.206;9.414;-2.787;-0.008;0.000;-0.001;
20190908_141653;0.160;9.455;-2.777;-0.001;0.000;-0.001;
20190908_141653;0.227;9.459;-2.739;0.001;-0.001;-0.001;
20190908_141653;0.201;9.395;-2.744;-0.005;0.000;-0.001;
20190908_141653;0.242;9.366;-2.763;-0.004;0.000;-0.003;
20190908_141654;0.204;9.270;-2.684;0.002;0.000;-0.003;
20190908_141654;0.259;9.366;-2.770;-0.000;0.000;-0.003;
20190908_141654;0.242;9.349;-2.717;0.002;-0.001;-0.003;
20190908_141654;0.247;9.527;-2.789;0.003;0.001;-0.002;
20190908_141654;0.223;9.517;-2.792;-0.003;0.000;-0.003;
20190908_141654;0.177;9.579;-2.808;0.001;-0.001;-0.003;
20190908_141654;0.194;9.567;-2.820;-0.003;0.000;-0.002;
20190908_141654;0.184;9.577;-2.784;-0.001;0.000;-0.002;
20190908_141654;0.230;9.555;-2.784;-0.004;0.001;-0.000;
20190908_141655;0.237;9.524;-2.777;0.001;0.001;-0.001;
20190908_141655;0.192;9.546;-2.823;-0.001;0.000;-0.000;
20190908_141655;0.242;9.507;-2.801;-0.005;0.000;-0.000;
20190908_141655;0.194;9.538;-2.775;-0.001;0.001;-0.000;
20190908_141655;0.249;9.584;-2.832;-0.004;0.001;-0.001;
20190908_141655;0.247;9.507;-2.813;-0.004;0.001;-0.000;
20190908_141655;0.215;9.546;-2.835;-0.000;0.001;-0.000;
20190908_141655;0.165;9.548;-2.780;-0.000;0.001;-0.001;
20190908_141655;0.132;9.577;-2.825;-0.004;0.001;-0.000;
20190908_141655;0.136;9.586;-2.859;-0.001;0.002;-0.000;
20190908_141656;0.144;9.637;-2.782;-0.000;0.002;-0.001;
20190908_141656;0.177;9.538;-2.854;-0.003;0.002;-0.000;
20190908_141656;0.122;9.538;-2.792;-0.004;0.002;-0.000;
20190908_141656;0.148;9.577;-2.816;-0.004;0.000;-0.001;
20190908_141656;0.139;9.512;-2.820;-0.003;0.001;-0.001;
20190908_141656;0.148;9.529;-2.813;-0.004;0.000;-0.001;
20190908_141656;0.158;9.503;-2.830;-0.003;0.001;-0.002;
20190908_141656;0.156;9.505;-2.837;-0.001;0.001;-0.001;
20190908_141656;0.196;9.534;-2.875;-0.001;-0.001;-0.002;
20190908_141656;0.136;9.503;-2.852;0.001;0.000;-0.003;
20190908_141657;0.096;9.517;-2.772;0.003;0.001;-0.002;
20190908_141657;0.148;9.548;-2.854;0.004;-0.001;-0.002;
20190908_141657;0.093;9.541;-2.840;0.008;-0.001;-0.001;
20190908_141657;0.124;9.517;-2.892;0.011;0.001;-0.000;
20190908_141657;0.081;9.562;-2.828;-0.000;0.001;0.001;
20190908_141657;0.124;9.538;-2.887;-0.004;0.000;-0.000;
20190908_141657;0.148;9.538;-2.861;-0.005;0.000;0.001;
20190908_141657;0.129;9.582;-2.863;-0.001;0.001;0.002;
20190908_141657;0.108;9.524;-2.856;-0.003;0.001;0.002;
20190908_141657;0.134;9.469;-2.847;-0.003;0.001;-0.000;
20190908_141658;0.055;9.503;-2.873;0.002;0.000;-0.000;
20190908_141658;0.081;9.522;-2.868;-0.000;-0.001;-0.002;
20190908_141658;0.101;9.455;-2.820;-0.008;0.000;-0.002;
20190908_141658;0.096;9.483;-2.909;-0.010;0.002;-0.000;
20190908_141658;0.072;9.452;-2.863;-0.003;-0.001;-0.002;
20190908_141658;0.117;9.493;-2.871;-0.006;-0.001;-0.002;
20190908_141658;0.115;9.531;-2.861;-0.000;0.000;-0.002;
20190908_141658;0.105;9.467;-2.863;-0.006;0.000;-0.001;
20190908_141658;0.077;9.519;-2.847;-0.006;0.002;-0.000;
20190908_141659;0.103;9.459;-2.878;-0.003;-0.001;-0.000;
20190908_141659;0.091;9.579;-2.895;-0.004;0.001;0.002;
20190908_141659;0.010;9.596;-2.868;-0.006;-0.001;0.001;
20190908_141659;0.072;9.574;-2.883;-0.006;-0.001;-0.000;
20190908_141659;0.081;9.625;-2.911;-0.008;0.001;0.001;
20190908_141659;0.053;9.591;-2.890;-0.001;-0.002;0.001;
20190908_141659;0.093;9.598;-2.892;-0.003;-0.002;0.002;
20190908_141659;0.034;9.620;-2.926;-0.002;-0.003;-0.000;
20190908_141659;0.122;9.553;-2.923;-0.005;-0.002;0.001;
20190908_141700;0.160;9.524;-2.923;-0.003;-0.004;-0.000;
20190908_141700;0.081;9.531;-2.780;-0.004;-0.002;-0.000;
20190908_141700;0.055;9.534;-2.880;-0.001;-0.002;-0.001;
20190908_141700;0.060;9.560;-2.859;-0.004;-0.003;-0.003;
20190908_141700;0.079;9.541;-2.854;-0.002;-0.004;-0.003;
20190908_141700;0.062;9.560;-2.863;-0.006;-0.004;-0.004;
20190908_141700;0.074;9.515;-2.866;-0.002;-0.004;-0.004;
20190908_141700;0.110;9.565;-2.907;0.000;-0.006;-0.006;
20190908_141700;0.057;9.517;-2.880;-0.005;-0.004;-0.006;
20190908_141701;0.086;9.515;-2.820;-0.005;-0.004;-0.006;
20190908_141701;0.079;9.459;-2.789;-0.004;-0.004;-0.006;
20190908_141701;0.101;9.443;-2.844;-0.002;-0.004;-0.006;
20190908_141701;0.117;9.424;-2.835;-0.001;-0.005;-0.006;
20190908_141701;0.074;9.414;-2.801;-0.004;-0.005;-0.006;
20190908_141701;0.098;9.474;-2.808;-0.002;-0.005;-0.005;
20190908_141701;0.113;9.357;-2.792;0.001;-0.005;-0.005;
20190908_141701;0.139;9.349;-2.816;0.000;-0.005;-0.006;
20190908_141701;0.122;9.342;-2.777;-0.001;-0.006;-0.006;
20190908_141702;0.160;9.383;-2.780;-0.002;-0.005;-0.004;
20190908_141702;0.153;9.471;-2.782;0.001;-0.006;-0.006;
20190908_141702;0.168;9.546;-2.852;0.000;-0.006;-0.005;
20190908_141702;0.153;9.495;-2.823;-0.002;-0.005;-0.005;
20190908_141702;0.146;9.471;-2.808;0.000;-0.005;-0.006;
20190908_141702;0.136;9.550;-2.830;-0.001;-0.004;-0.004;
20190908_141702;0.134;9.562;-2.837;0.001;-0.004;-0.004;
20190908_141702;0.098;9.481;-2.806;0.000;-0.004;-0.004;
20190908_141702;0.136;9.586;-2.813;0.001;-0.004;-0.004;
20190908_141702;0.134;9.546;-2.871;-0.001;-0.005;-0.003;
20190908_141703;0.151;9.515;-2.816;0.001;-0.003;-0.003;
20190908_141703;0.132;9.543;-2.861;0.003;-0.004;-0.004;
20190908_141703;0.110;9.610;-2.847;0.000;-0.004;-0.003;
20190908_141703;0.156;9.653;-2.885;0.000;-0.004;-0.003;
20190908_141703;0.146;9.697;-2.837;-0.001;-0.004;-0.001;
20190908_141703;0.124;9.744;-2.871;-0.002;-0.004;-0.004;
20190908_141703;0.206;9.742;-2.947;0.000;-0.005;-0.004;
20190908_141703;0.141;9.701;-2.947;-0.002;-0.003;-0.004;
20190908_141703;0.134;9.694;-2.950;-0.001;-0.004;-0.005;
20190908_141704;0.127;9.732;-2.895;-0.004;-0.005;-0.006;
20190908_141704;0.096;9.608;-2.813;-0.003;-0.005;-0.006;
20190908_141704;0.247;9.598;-2.907;-0.002;-0.004;-0.006;
20190908_141704;0.160;9.589;-2.907;-0.001;-0.004;-0.004;
20190908_141704;0.175;9.579;-2.890;-0.001;-0.004;-0.006;
20190908_141704;0.223;9.651;-2.914;-0.001;-0.004;-0.005;
20190908_141704;0.194;9.646;-2.919;0.000;-0.004;-0.005;
20190908_141704;0.225;9.708;-2.909;-0.003;-0.003;-0.005;
20190908_141704;0.220;9.706;-2.873;-0.002;-0.004;-0.004;
20190908_141704;0.256;9.697;-2.919;-0.003;-0.004;-0.005;
20190908_141705;0.139;9.680;-2.863;-0.003;-0.003;-0.004;
20190908_141705;0.187;9.620;-2.873;-0.007;-0.003;-0.005;
20190908_141705;0.244;9.658;-2.904;-0.005;-0.004;-0.005;
20190908_141705;0.223;9.548;-2.856;-0.003;-0.005;-0.004;
20190908_141705;0.227;9.538;-2.863;-0.006;-0.003;-0.004;
20190908_141705;0.196;9.541;-2.784;-0.006;-0.005;-0.005;
20190908_141705;0.251;9.589;-2.832;-0.005;-0.003;-0.004;
20190908_141705;0.242;9.479;-2.808;-0.004;-0.004;-0.004;
20190908_141705;0.196;9.517;-2.863;-0.004;-0.004;-0.003;
20190908_141706;0.220;9.491;-2.782;-0.004;-0.002;-0.001;
20190908_141706;0.172;9.309;-2.758;-0.007;-0.003;-0.001;
20190908_141706;0.201;9.378;-2.789;-0.003;-0.004;-0.001;
20190908_141706;0.160;9.395;-2.684;-0.003;-0.004;-0.001;
20190908_141706;0.158;9.345;-2.734;-0.005;-0.004;-0.001;
20190908_141706;0.321;9.448;-2.878;-0.002;-0.003;-0.001;
20190908_141706;0.223;9.538;-2.732;-0.002;-0.002;0.001;
20190908_141706;0.237;9.524;-2.775;-0.002;-0.002;-0.000;
20190908_141706;0.204;9.469;-2.770;-0.002;-0.003;-0.000;
20190908_141706;0.278;9.457;-2.801;-0.003;-0.002;0.001;
20190908_141707;0.213;9.373;-2.765;-0.005;-0.002;0.001;
20190908_141707;0.211;9.534;-2.861;-0.003;-0.003;-0.000;
20190908_141707;0.251;9.517;-2.837;0.000;-0.003;0.001;
20190908_141707;0.168;9.515;-2.849;-0.004;-0.001;0.002;
20190908_141707;0.280;9.601;-2.849;-0.004;-0.002;0.001;
20190908_141707;0.292;9.409;-2.799;-0.005;-0.001;-0.000;
20190908_141707;0.292;9.574;-2.775;-0.002;-0.004;0.001;
20190908_141707;0.242;9.522;-2.789;-0.002;0.001;0.001;
20190908_141707;0.180;9.476;-2.746;-0.002;-0.002;-0.000;
20190908_141708;0.129;9.443;-2.784;-0.004;-0.002;-0.000;
20190908_141708;0.237;9.486;-2.763;-0.006;0.001;0.001;
20190908_141708;0.196;9.538;-2.772;-0.003;-0.002;0.001;
20190908_141708;0.189;9.385;-2.811;-0.007;0.001;0.003;
20190908_141708;0.235;9.452;-2.828;-0.006;-0.002;0.002;
20190908_141708;0.192;9.464;-2.737;-0.001;0.001;0.002;
20190908_141708;0.242;9.457;-2.835;-0.004;0.001;0.002;
20190908_141708;0.156;9.519;-2.782;-0.005;-0.003;0.001;
20190908_141708;0.189;9.414;-2.811;-0.003;-0.001;0.003;
20190908_141708;0.189;9.457;-2.777;-0.008;-0.001;0.002;
20190908_141709;0.208;9.436;-2.770;-0.004;-0.001;0.002;
20190908_141709;0.196;9.426;-2.761;-0.004;0.001;0.003;
20190908_141709;0.223;9.361;-2.787;-0.003;0.001;0.004;
20190908_141709;0.220;9.409;-2.725;-0.003;-0.001;0.003;
20190908_141709;0.230;9.431;-2.784;-0.002;0.001;0.004;
20190908_141709;0.122;9.278;-2.789;-0.005;-0.001;0.003;
20190908_141709;0.098;9.428;-2.643;-0.007;0.002;0.003;
20190908_141709;0.115;9.306;-2.744;-0.005;-0.001;0.003;
20190908_141709;0.215;9.380;-2.804;-0.003;-0.001;0.004;
20190908_141710;0.153;9.416;-2.756;-0.007;-0.002;0.004;
20190908_141710;0.194;9.462;-2.722;-0.004;-0.001;0.002;
20190908_141710;0.256;9.380;-2.753;-0.006;-0.001;0.005;
20190908_141710;0.148;9.290;-2.784;-0.003;-0.001;0.002;
20190908_141710;0.192;9.333;-2.765;-0.004;-0.001;0.002;
20190908_141710;0.184;9.237;-2.717;-0.005;-0.001;0.003;
20190908_141710;0.129;9.278;-2.732;-0.001;-0.001;0.002;
20190908_141710;0.184;9.323;-2.734;-0.003;-0.001;0.002;
20190908_141710;0.201;9.361;-2.658;-0.003;-0.002;0.002;
20190908_141710;0.215;9.263;-2.653;-0.002;-0.001;0.002;
20190908_141711;0.153;9.258;-2.770;-0.005;-0.003;0.002;
20190908_141711;0.227;9.328;-2.725;0.003;-0.003;0.001;
20190908_141711;0.148;9.239;-2.686;-0.004;-0.001;0.002;
20190908_141711;0.251;9.345;-2.758;-0.002;-0.001;0.004;
20190908_141711;0.146;9.290;-2.744;-0.003;0.001;0.003;
20190908_141711;0.201;9.278;-2.744;-0.001;0.001;0.004;
20190908_141711;0.086;9.199;-2.720;-0.005;-0.001;0.002;
20190908_141711;0.306;9.397;-2.717;-0.005;-0.001;0.003;
20190908_141711;0.244;9.325;-2.744;-0.002;0.001;0.003;
20190908_141712;0.247;9.390;-2.763;0.001;-0.002;0.002;
20190908_141712;0.194;9.306;-2.713;-0.005;-0.001;0.002;
20190908_141712;0.287;9.321;-2.787;-0.002;-0.002;0.003;
20190908_141712;0.182;9.278;-2.789;-0.005;0.001;0.002;
20190908_141712;0.196;9.349;-2.727;-0.004;0.001;0.004;
20190908_141712;0.120;9.261;-2.686;-0.008;-0.001;0.003;
20190908_141712;0.249;9.347;-2.820;-0.002;-0.003;0.002;
20190908_141712;0.182;9.342;-2.761;-0.004;0.001;0.002;
20190908_141712;0.302;9.361;-2.775;-0.002;-0.001;-0.000;
20190908_141712;0.108;9.234;-2.703;0.001;0.001;-0.002;
20190908_141713;0.235;9.416;-2.789;0.001;-0.000;0.000;
20190908_141713;0.208;9.330;-2.732;0.004;-0.000;0.000;
20190908_141713;0.151;9.357;-2.758;-0.000;0.002;0.000;
20190908_141713;0.165;9.409;-2.787;0.001;-0.000;-0.002;
20190908_141713;0.108;9.309;-2.732;-0.000;-0.000;-0.002;
20190908_141713;0.132;9.443;-2.753;0.001;-0.001;-0.001;
20190908_141713;0.172;9.294;-2.794;-0.000;-0.000;-0.003;
20190908_141713;0.215;9.443;-2.741;-0.001;0.001;0.000;
20190908_141713;0.156;9.304;-2.761;0.002;-0.000;0.000;
20190908_141714;0.115;9.309;-2.751;0.001;-0.000;-0.001;
20190908_141714;0.091;9.316;-2.737;-0.001;0.001;-0.001;
20190908_141714;0.287;9.378;-2.835;0.001;-0.000;-0.002;
20190908_141714;0.117;9.278;-2.789;-0.001;-0.000;-0.003;
20190908_141714;0.139;9.371;-2.796;0.001;0.001;0.000;
20190908_141714;0.227;9.414;-2.751;0.001;-0.000;-0.002;
20190908_141714;0.230;9.426;-2.775;0.001;-0.000;0.000;
20190908_141714;0.199;9.426;-2.806;0.002;-0.000;-0.001;
20190908_141714;0.213;9.385;-2.847;-0.000;-0.000;-0.002;
20190908_141715;0.163;9.464;-2.761;-0.001;0.001;-0.001;
20190908_141715;0.208;9.419;-2.715;-0.005;-0.001;-0.004;
20190908_141715;0.194;9.412;-2.806;-0.003;-0.002;-0.004;
20190908_141715;0.093;9.421;-2.761;0.001;-0.000;-0.002;
20190908_141715;0.177;9.390;-2.844;0.006;0.001;0.000;
20190908_141715;0.120;9.316;-2.811;0.004;-0.001;-0.002;
20190908_141715;0.206;9.550;-2.782;0.003;-0.000;-0.001;
20190908_141715;0.290;9.357;-2.825;0.001;-0.000;-0.002;
20190908_141715;0.117;9.378;-2.780;-0.003;-0.000;-0.002;
20190908_141715;0.122;9.495;-2.842;-0.003;0.002;0.000;
20190908_141716;0.244;9.340;-2.708;0.002;-0.000;-0.002;
20190908_141716;0.204;9.390;-2.808;-0.001;0.001;-0.001;
20190908_141716;0.208;9.321;-2.811;0.001;-0.001;-0.002;
20190908_141716;0.192;9.328;-2.775;-0.000;-0.001;-0.005;
20190908_141716;0.163;9.414;-2.777;0.001;-0.001;-0.003;
20190908_141716;0.223;9.407;-2.784;0.003;-0.001;-0.004;
20190908_141716;0.196;9.390;-2.806;-0.000;-0.001;-0.003;
20190908_141716;0.175;9.431;-2.828;0.003;-0.002;-0.005;
20190908_141716;0.194;9.414;-2.775;0.002;-0.001;-0.004;
20190908_141716;0.141;9.239;-2.749;-0.001;-0.001;-0.004;
20190908_141717;0.227;9.395;-2.804;0.002;-0.002;0.000;
20190908_141717;0.105;9.337;-2.796;-0.001;0.000;-0.001;
20190908_141717;0.156;9.385;-2.818;0.001;0.000;-0.001;
20190908_141717;0.156;9.304;-2.799;0.000;-0.002;-0.003;
20190908_141717;0.158;9.354;-2.775;0.000;-0.002;-0.002;
20190908_141717;0.204;9.328;-2.761;-0.002;0.000;-0.003;
20190908_141717;0.146;9.333;-2.782;0.000;-0.002;-0.002;
20190908_141717;0.136;9.373;-2.770;0.002;0.001;-0.001;
20190908_141717;0.223;9.491;-2.794;0.001;-0.001;0.002;
20190908_141718;0.187;9.222;-2.844;0.000;-0.002;-0.001;
20190908_141718;0.256;9.337;-2.830;-0.001;-0.001;0.000;
20190908_141718;0.122;9.340;-2.775;-0.006;0.000;-0.002;
20190908_141718;0.350;9.357;-3.091;0.000;-0.002;-0.002;
20190908_141718;0.273;9.313;-2.758;-0.003;-0.002;-0.002;
20190908_141718;0.192;9.323;-2.768;-0.002;-0.002;-0.002;
20190908_141718;0.124;9.246;-2.722;-0.002;-0.003;-0.006;
20190908_141718;0.204;9.359;-2.792;0.000;-0.002;-0.003;
20190908_141718;0.175;9.242;-2.749;0.002;-0.002;-0.002;
20190908_141719;0.134;9.266;-2.804;0.002;-0.001;0.000;
20190908_141719;0.175;9.330;-2.782;-0.001;-0.001;-0.001;
20190908_141719;0.170;9.414;-2.770;-0.002;-0.001;0.001;
20190908_141719;0.223;9.383;-2.830;0.000;-0.001;0.000;
20190908_141719;0.208;9.383;-2.801;0.001;-0.001;0.000;
20190908_141719;0.239;9.242;-2.796;0.000;-0.002;-0.001;
20190908_141719;0.194;9.256;-2.792;-0.003;-0.001;0.000;
20190908_141719;0.158;9.227;-2.780;-0.002;0.000;0.000;
20190908_141719;0.189;9.342;-2.792;0.000;-0.001;0.000;
20190908_141719;0.115;9.294;-2.770;-0.001;0.001;-0.001;
20190908_141720;0.204;9.340;-2.780;-0.001;0.000;0.000;
20190908_141720;0.139;9.242;-2.739;-0.003;-0.001;-0.001;
20190908_141720;0.156;9.347;-2.753;0.001;0.000;-0.001;
20190908_141720;0.120;9.244;-2.804;-0.003;0.000;-0.001;
20190908_141720;0.187;9.325;-2.756;-0.001;0.000;-0.001;
20190908_141720;0.232;9.323;-2.780;0.002;-0.001;0.000;
20190908_141720;0.235;9.304;-2.744;-0.003;-0.002;-0.001;
20190908_141720;0.237;9.297;-2.816;0.001;0.000;0.001;
20190908_141720;0.127;9.266;-2.722;0.000;0.001;0.000;
20190908_141721;0.227;9.424;-2.801;0.002;0.001;0.000;
20190908_141721;0.168;9.261;-2.780;-0.003;-0.001;0.000;
20190908_141721;0.163;9.268;-2.799;0.000;0.001;0.000;
20190908_141721;0.220;9.304;-2.808;0.005;-0.001;0.000;
20190908_141721;0.204;9.275;-2.729;-0.003;0.000;-0.003;
20190908_141721;0.230;9.436;-2.770;0.000;-0.001;-0.002;
20190908_141721;0.218;9.227;-2.804;0.002;0.000;-0.003;
20190908_141721;0.261;9.467;-2.811;-0.001;-0.001;-0.003;
20190908_141721;0.192;9.230;-2.801;0.000;-0.002;-0.004;
20190908_141722;0.065;9.390;-2.969;-0.008;0.000;-0.002;
20190908_141722;0.184;9.282;-2.710;0.001;-0.002;-0.003;
20190908_141722;0.139;9.325;-2.823;0.005;0.001;0.002;
20190908_141722;0.244;9.347;-2.837;0.003;0.001;0.003;
20190908_141722;0.213;9.361;-2.808;0.000;0.002;0.002;
20190908_141722;0.256;9.383;-2.878;0.000;0.002;0.004;
20190908_141722;0.141;9.404;-2.761;0.002;0.003;0.004;
20190908_141722;0.134;9.354;-2.880;-0.001;0.001;0.002;
20190908_141722;0.199;9.424;-2.835;0.000;0.002;0.002;
20190908_141723;0.189;9.450;-2.830;-0.004;0.002;-0.000;
20190908_141723;0.156;9.445;-2.866;-0.004;0.004;0.002;
20190908_141723;0.141;9.409;-2.806;-0.002;0.002;0.001;
20190908_141723;0.230;9.462;-2.818;-0.003;0.003;0.002;
20190908_141723;0.144;9.352;-2.749;-0.003;0.002;0.001;
20190908_141723;0.151;9.483;-2.782;0.002;0.001;0.002;
20190908_141723;0.045;9.371;-2.691;-0.001;0.001;0.003;
20190908_141723;0.081;9.366;-2.782;0.001;0.001;0.002;
20190908_141723;0.096;9.376;-2.852;0.001;0.002;0.001;
20190908_141723;0.189;9.469;-2.840;0.002;0.002;0.002;
20190908_141724;0.124;9.443;-2.744;0.003;0.003;0.003;
20190908_141724;0.168;9.431;-2.837;0.010;0.002;0.005;
20190908_141724;0.134;9.457;-2.885;0.004;0.002;0.004;
20190908_141724;0.136;9.522;-2.856;-0.002;-0.001;-0.000;
20190908_141724;0.014;9.364;-2.818;0.001;-0.000;0.001;
20190908_141724;0.129;9.538;-2.854;-0.001;0.001;0.001;
20190908_141724;0.043;9.519;-2.875;0.000;0.001;0.002;
20190908_141724;0.038;9.536;-2.816;0.000;-0.001;-0.002;
20190908_141724;0.091;9.507;-2.878;0.000;0.001;0.001;
20190908_141725;0.091;9.582;-2.820;-0.001;-0.001;-0.001;
20190908_141725;0.120;9.457;-2.868;0.001;-0.004;-0.004;
20190908_141725;0.199;9.550;-2.832;-0.001;-0.003;-0.003;
20190908_141725;0.194;9.553;-2.868;0.000;-0.003;-0.003;
20190908_141725;0.218;9.543;-2.899;-0.001;-0.001;-0.003;
20190908_141725;0.113;9.414;-2.856;-0.002;-0.003;-0.003;
20190908_141725;0.168;9.565;-2.818;-0.001;-0.001;-0.001;
20190908_141725;0.132;9.608;-2.868;-0.002;-0.003;-0.001;
20190908_141725;0.136;9.402;-2.837;0.000;-0.003;-0.005;
20190908_141725;0.163;9.555;-2.892;-0.001;-0.005;-0.005;
20190908_141726;0.204;9.584;-2.935;0.002;-0.003;-0.007;
20190908_141726;0.077;9.402;-2.801;-0.003;-0.004;-0.007;
20190908_141726;0.144;9.419;-2.907;-0.002;-0.004;-0.009;
20190908_141726;0.168;9.390;-2.775;-0.003;-0.004;-0.010;
20190908_141726;0.124;9.440;-2.806;-0.001;-0.003;-0.008;
20190908_141726;0.081;9.345;-2.835;-0.003;-0.005;-0.011;
20190908_141726;0.108;9.515;-2.782;0.000;-0.005;-0.009;
20190908_141726;0.192;9.318;-2.787;-0.002;-0.005;-0.010;
20190908_141726;0.101;9.378;-2.849;0.001;-0.004;-0.007;
20190908_141727;0.065;9.270;-2.808;-0.003;-0.004;-0.007;
20190908_141727;0.065;9.385;-2.737;-0.001;-0.005;-0.007;
20190908_141727;0.220;9.531;-2.916;0.000;-0.004;-0.007;
20190908_141727;0.139;9.261;-2.720;-0.001;-0.004;-0.005;
20190908_141727;0.103;9.512;-2.698;-0.001;-0.004;-0.004;
20190908_141727;0.184;9.366;-2.909;-0.001;-0.004;-0.004;
20190908_141727;0.170;9.287;-2.729;-0.002;-0.004;-0.003;
20190908_141727;0.148;9.309;-2.794;-0.001;-0.005;-0.004;
20190908_141727;0.153;9.266;-2.756;-0.001;-0.004;-0.003;
20190908_141727;0.124;9.108;-2.746;0.000;-0.001;-0.001;
20190908_141728;0.144;9.275;-2.739;0.001;-0.003;0.001;
20190908_141728;0.127;9.182;-2.725;-0.001;-0.000;-0.000;
20190908_141728;0.220;9.313;-2.842;0.001;-0.003;0.002;
20190908_141728;0.163;9.242;-2.792;0.001;-0.003;0.002;
20190908_141728;0.136;9.258;-2.720;-0.002;-0.001;0.003;
20190908_141728;0.170;9.309;-2.830;0.001;-0.000;0.001;
20190908_141728;0.134;9.311;-2.734;0.000;-0.001;0.002;
20190908_141728;0.103;9.376;-2.820;-0.001;-0.003;0.001;
20190908_141728;0.196;9.263;-2.830;0.000;-0.001;0.001;
20190908_141728;0.189;9.390;-2.775;0.001;-0.003;0.001;
20190908_141729;0.218;9.364;-2.770;0.000;-0.001;0.001;
20190908_141729;0.180;9.333;-2.725;-0.001;-0.003;0.001;
20190908_141729;0.132;9.292;-2.847;0.001;-0.001;-0.000;
20190908_141729;0.127;9.280;-2.789;-0.002;-0.003;0.003;
20190908_141729;0.074;9.268;-2.775;-0.001;-0.001;0.004;
20190908_141729;0.266;9.378;-2.782;-0.001;-0.000;0.004;
20190908_141729;0.218;9.337;-2.801;0.001;-0.001;0.004;
20190908_141729;0.206;9.383;-2.847;0.002;-0.000;0.003;
20190908_141729;0.232;9.462;-2.801;-0.001;-0.001;0.004;
20190908_141730;0.180;9.313;-2.734;0.001;-0.000;0.003;
20190908_141730;0.201;9.347;-2.818;-0.001;0.001;0.003;
20190908_141730;0.180;9.383;-2.820;-0.001;-0.001;0.002;
20190908_141730;0.227;9.392;-2.832;0.001;-0.000;0.002;
20190908_141730;0.124;9.325;-2.772;-0.001;-0.000;0.002;
20190908_141730;0.175;9.359;-2.789;-0.001;-0.000;0.002;
20190908_141730;0.187;9.333;-2.813;-0.002;-0.000;0.003;
20190908_141730;0.192;9.474;-2.775;0.001;0.001;0.003;
20190908_141730;0.151;9.426;-2.792;0.002;-0.000;0.004;
20190908_141730;0.101;9.357;-2.816;-0.001;-0.000;0.004;
20190908_141731;0.160;9.445;-2.837;-0.002;-0.000;0.004;
20190908_141731;0.204;9.481;-2.796;-0.002;-0.000;0.004;
20190908_141731;0.215;9.428;-2.787;-0.002;-0.000;0.004;
20190908_141731;0.223;9.479;-2.816;0.001;0.001;0.002;
20190908_141731;0.172;9.419;-2.796;0.001;-0.000;0.002;
20190908_141731;0.184;9.383;-2.761;-0.001;-0.000;0.001;
20190908_141731;0.127;9.359;-2.758;-0.001;0.001;0.001;
20190908_141731;0.127;9.421;-2.823;0.001;0.001;0.003;
20190908_141731;0.201;9.395;-2.772;0.000;0.002;0.002;
20190908_141732;0.196;9.369;-2.746;0.000;0.002;0.004;
20190908_141732;0.172;9.378;-2.789;-0.001;-0.001;0.002;
20190908_141732;0.177;9.395;-2.782;0.001;-0.000;0.003;
20190908_141732;0.213;9.313;-2.806;-0.002;-0.000;0.001;
20190908_141732;0.230;9.419;-2.820;0.000;-0.000;0.002;
20190908_141732;0.163;9.354;-2.758;0.000;0.001;0.002;
20190908_141732;0.163;9.407;-2.789;-0.001;0.002;0.002;
20190908_141732;0.120;9.287;-2.799;-0.002;-0.000;0.002;
20190908_141732;0.215;9.450;-2.871;-0.002;0.001;0.003;
20190908_141732;0.211;9.342;-2.746;-0.001;-0.001;0.001;
20190908_141733;0.156;9.385;-2.796;-0.001;-0.000;0.002;
20190908_141733;0.218;9.359;-2.873;-0.002;0.001;0.002;
20190908_141733;0.168;9.330;-2.784;-0.001;-0.000;-0.003;
20190908_141733;0.194;9.304;-2.818;0.000;-0.000;-0.002;
20190908_141733;0.108;9.335;-2.811;-0.001;-0.000;-0.001;
20190908_141733;0.225;9.349;-2.808;-0.001;-0.000;-0.001;
20190908_141733;0.275;9.392;-2.844;0.002;-0.001;-0.002;
20190908_141733;0.206;9.397;-2.799;-0.002;0.001;-0.002;
20190908_141733;0.168;9.330;-2.768;0.001;-0.000;-0.002;
20190908_141734;0.153;9.385;-2.804;-0.001;-0.000;-0.002;
20190908_141734;0.285;9.373;-2.792;0.003;-0.000;-0.001;
20190908_141734;0.249;9.397;-2.849;-0.001;-0.000;-0.003;
20190908_141734;0.194;9.407;-2.799;0.000;0.001;-0.002;
20190908_141734;0.194;9.471;-2.777;0.003;-0.001;-0.003;
20190908_141734;0.189;9.292;-2.840;0.000;-0.000;-0.003;
20190908_141734;0.187;9.445;-2.842;0.004;-0.001;-0.002;
20190908_141734;0.208;9.349;-2.811;-0.002;-0.001;-0.004;
20190908_141734;0.158;9.424;-2.837;-0.001;-0.000;-0.001;
20190908_141734;0.165;9.380;-2.792;0.000;-0.001;-0.004;
20190908_141735;0.239;9.433;-2.842;0.000;-0.000;-0.004;
20190908_141735;0.189;9.450;-2.868;-0.001;-0.001;-0.003;
20190908_141735;0.199;9.345;-2.813;-0.001;-0.001;-0.003;
20190908_141735;0.180;9.445;-2.830;0.001;-0.000;-0.003;
20190908_141735;0.206;9.263;-2.799;-0.001;-0.000;-0.003;
20190908_141735;0.218;9.361;-2.835;-0.001;-0.000;-0.001;
20190908_141735;0.187;9.325;-2.804;0.000;-0.000;-0.001;
20190908_141735;0.148;9.352;-2.782;0.002;-0.000;-0.001;
20190908_141735;0.127;9.330;-2.844;-0.002;0.002;-0.002;
20190908_141736;0.115;9.505;-2.828;-0.003;0.001;-0.003;
20190908_141736;0.199;9.369;-2.813;-0.002;-0.000;-0.002;
20190908_141736;0.165;9.424;-2.784;-0.001;-0.000;-0.003;
20190908_141736;0.192;9.404;-2.789;0.001;-0.000;0.000;
20190908_141736;0.247;9.290;-2.856;-0.001;0.001;0.000;
20190908_141736;0.144;9.251;-2.775;-0.002;0.001;0.000;
20190908_141736;0.172;9.313;-2.842;-0.001;0.001;0.003;
20190908_141736;0.160;9.285;-2.741;-0.002;0.002;0.002;
20190908_141736;0.256;9.309;-2.787;0.000;0.001;0.002;
20190908_141736;0.227;9.390;-2.813;-0.001;0.002;0.002;
20190908_141737;0.189;9.278;-2.823;-0.001;0.001;0.000;
20190908_141737;0.199;9.340;-2.787;-0.008;0.002;0.002;
20190908_141737;0.165;9.400;-2.770;-0.007;0.001;0.002;
20190908_141737;0.201;9.333;-2.708;-0.002;0.001;0.000;
20190908_141737;0.287;9.400;-2.854;0.000;-0.000;0.002;
20190908_141737;0.187;9.325;-2.782;-0.006;0.002;-0.002;
20190908_141737;0.249;9.347;-2.794;-0.002;0.001;-0.002;
20190908_141737;0.187;9.383;-2.717;0.001;-0.000;-0.002;
20190908_141737;0.215;9.464;-2.847;0.000;-0.000;-0.003;
20190908_141738;0.230;9.479;-2.768;0.006;-0.000;-0.003;
20190908_141738;0.251;9.388;-2.823;-0.003;0.001;-0.003;
20190908_141738;0.237;9.448;-2.799;0.002;-0.000;-0.003;
20190908_141738;0.213;9.397;-2.753;0.003;0.001;-0.002;
20190908_141738;0.232;9.275;-2.842;-0.002;0.001;-0.002;
20190908_141738;0.242;9.397;-2.811;0.020;-0.002;-0.002;
20190908_141738;0.204;9.366;-2.744;-0.000;-0.000;-0.002;
20190908_141738;0.067;9.287;-2.737;-0.000;-0.000;-0.003;
20190908_141738;0.201;9.390;-2.904;0.001;0.003;0.002;
20190908_141738;0.225;9.390;-2.950;0.017;0.002;-0.001;
20190908_141739;0.189;9.342;-2.686;-0.005;0.001;0.000;
20190908_141739;0.192;9.428;-2.761;-0.005;-0.000;0.000;
20190908_141739;0.251;9.471;-2.823;0.002;-0.000;-0.001;
20190908_141739;0.247;9.297;-2.801;0.005;-0.000;-0.003;
20190908_141739;0.227;9.325;-2.823;0.008;-0.000;-0.002;
20190908_141739;0.148;9.309;-2.799;0.003;-0.000;-0.001;
20190908_141739;0.184;9.385;-2.813;-0.002;0.001;-0.002;
20190908_141739;0.180;9.397;-2.761;-0.004;0.002;-0.002;
20190908_141739;0.220;9.433;-2.792;-0.003;0.001;-0.002;
20190908_141739;0.263;9.371;-2.799;0.001;0.001;-0.002;
20190908_141740;0.292;9.395;-2.852;-0.000;-0.000;-0.003;
20190908_141740;0.163;9.476;-2.801;0.002;0.001;-0.002;
20190908_141740;0.165;9.395;-2.794;0.005;-0.000;-0.004;
20190908_141740;0.184;9.376;-2.828;0.001;0.001;-0.003;
20190908_141740;0.163;9.486;-2.787;-0.002;-0.000;-0.002;
20190908_141740;0.273;9.424;-2.811;0.005;-0.000;-0.003;
20190908_141740;0.235;9.433;-2.885;0.004;-0.000;-0.003;
20190908_141740;0.213;9.404;-2.835;0.001;-0.002;-0.003;
20190908_141740;0.271;9.483;-2.820;0.004;-0.000;-0.002;
20190908_141741;0.196;9.361;-2.828;0.001;0.001;-0.002;
20190908_141741;0.287;9.476;-2.854;0.008;-0.000;-0.003;
20190908_141741;0.180;9.397;-2.758;-0.003;0.001;-0.003;
20190908_141741;0.232;9.452;-2.880;0.001;0.001;-0.003;
20190908_141741;0.237;9.400;-2.835;-0.002;0.002;-0.003;
20190908_141741;0.141;9.431;-2.847;0.001;0.002;-0.003;
20190908_141741;0.158;9.459;-2.840;-0.002;0.002;-0.002;
20190908_141741;0.165;9.488;-2.823;0.003;0.002;0.000;
20190908_141741;0.283;9.562;-2.883;-0.000;-0.000;0.000;
20190908_141741;0.227;9.469;-2.861;0.003;0.001;-0.001;
20190908_141742;0.223;9.459;-2.940;0.003;0.001;-0.001;
20190908_141742;0.230;9.493;-2.875;-0.004;-0.000;-0.002;
20190908_141742;0.237;9.505;-2.880;0.004;-0.000;-0.002;
20190908_141742;0.201;9.464;-2.892;0.002;0.001;-0.002;
20190908_141742;0.172;9.464;-2.887;0.002;0.003;0.000;
20190908_141742;0.318;9.536;-2.957;0.004;0.002;-0.001;
20190908_141742;0.249;9.503;-2.947;0.003;0.001;-0.002;
20190908_141742;0.247;9.548;-2.957;0.002;0.001;-0.002;
20190908_141742;0.163;9.428;-2.923;0.002;0.001;-0.004;
20190908_141743;0.163;9.464;-3.017;0.001;0.001;-0.004;
20190908_141743;0.189;9.529;-2.880;-0.004;0.002;-0.002;
20190908_141743;0.215;9.498;-2.942;0.005;-0.000;-0.003;
20190908_141743;0.268;9.464;-2.988;-0.000;0.002;-0.002;
20190908_141743;0.259;9.673;-3.029;0.001;0.001;-0.003;
20190908_141743;0.213;9.637;-3.057;0.003;-0.000;-0.003;
20190908_141743;0.192;9.749;-3.065;-0.002;0.002;-0.003;
20190908_141743;0.352;9.694;-3.124;-0.002;0.001;-0.001;
20190908_141743;0.230;9.687;-3.053;-0.000;0.001;-0.003;
20190908_141743;0.263;9.495;-3.033;-0.009;0.002;-0.002;
20190908_141744;0.213;9.438;-3.012;-0.003;0.001;-0.002;
20190908_141744;0.218;9.395;-3.005;-0.004;0.002;-0.001;
20190908_141744;0.215;9.443;-3.017;-0.003;-0.000;-0.003;
20190908_141744;0.225;9.445;-3.038;-0.004;0.001;-0.002;
20190908_141744;0.271;9.582;-3.079;0.001;-0.002;-0.003;
20190908_141744;0.247;9.392;-3.048;0.001;0.001;-0.006;
20190908_141744;0.199;9.584;-3.053;-0.000;-0.000;-0.006;
20190908_141744;0.244;9.352;-3.045;-0.006;-0.000;-0.007;
20190908_141744;0.170;9.455;-3.005;-0.008;-0.002;-0.006;
20190908_141745;0.225;9.299;-3.069;-0.008;-0.003;-0.007;
20190908_141745;0.218;9.395;-2.957;-0.010;-0.000;-0.003;
20190908_141745;0.326;9.361;-3.002;-0.004;0.001;-0.001;
20190908_141745;0.294;9.469;-3.014;-0.002;-0.000;-0.001;
20190908_141745;0.189;9.390;-3.007;-0.004;-0.000;-0.004;
20190908_141745;0.182;9.512;-3.026;-0.011;0.001;-0.003;
20190908_141745;0.268;9.467;-3.012;-0.007;0.003;-0.003;
20190908_141745;0.232;9.491;-3.021;-0.010;0.001;-0.003;
20190908_141745;0.235;9.385;-2.998;0.006;-0.000;-0.004;
20190908_141746;0.323;9.383;-2.969;-0.003;-0.000;-0.004;
20190908_141746;0.309;9.376;-2.993;-0.002;-0.000;-0.005;
20190908_141746;0.302;9.218;-2.950;-0.003;0.001;-0.004;
20190908_141746;0.268;9.285;-2.964;-0.004;0.001;-0.005;
20190908_141746;0.278;9.151;-2.933;-0.004;0.001;-0.004;
20190908_141746;0.290;9.306;-2.990;-0.003;0.001;-0.002;
20190908_141746;0.268;9.196;-2.969;-0.000;0.001;-0.001;
20190908_141746;0.244;9.335;-2.914;-0.004;0.001;-0.002;
20190908_141746;0.299;9.263;-2.940;-0.004;0.001;-0.003;
20190908_141746;0.278;9.306;-2.921;-0.003;0.001;-0.003;
20190908_141747;0.299;9.287;-2.945;-0.003;0.001;-0.004;
20190908_141747;0.273;9.213;-2.902;-0.006;0.001;-0.002;
20190908_141747;0.287;9.337;-2.871;-0.004;0.002;-0.001;
20190908_141747;0.244;9.297;-2.883;-0.003;0.002;-0.002;
20190908_141747;0.333;9.318;-2.895;-0.005;0.002;0.000;
20190908_141747;0.239;9.210;-2.840;-0.003;0.002;-0.002;
20190908_141747;0.230;9.213;-2.871;-0.005;0.003;0.002;
20190908_141747;0.227;9.222;-2.887;-0.004;0.002;0.003;
20190908_141747;0.278;9.143;-2.837;-0.002;0.003;0.000;
20190908_141748;0.306;9.249;-2.868;-0.003;0.004;0.003;
20190908_141748;0.314;9.170;-2.835;-0.000;0.003;0.000;
20190908_141748;0.232;9.227;-2.871;-0.003;0.003;0.000;
20190908_141748;0.259;9.222;-2.842;-0.000;0.001;-0.001;
20190908_141748;0.172;9.251;-2.880;-0.002;0.004;0.002;
20190908_141748;0.223;9.258;-2.842;-0.004;0.003;0.002;
20190908_141748;0.204;9.287;-2.859;-0.002;0.002;0.004;
20190908_141748;0.196;9.304;-2.899;-0.003;0.002;0.002;
20190908_141748;0.249;9.249;-2.808;0.002;0.002;0.000;
20190908_141748;0.201;9.153;-2.830;-0.007;0.003;0.002;
20190908_141749;0.249;9.256;-2.808;0.001;0.001;-0.002;
20190908_141749;0.177;9.091;-2.753;-0.005;0.002;-0.002;
20190908_141749;0.177;9.088;-2.751;0.001;0.002;-0.001;
20190908_141749;0.249;9.199;-2.887;0.001;0.002;0.000;
20190908_141749;0.218;9.194;-2.713;-0.000;-0.000;-0.001;
20190908_141749;0.215;9.275;-2.832;0.004;0.003;0.000;
20190908_141749;0.251;9.201;-2.849;0.002;0.002;0.000;
20190908_141749;0.151;9.256;-2.811;0.003;0.001;0.002;
20190908_141749;0.208;9.088;-2.789;-0.000;0.003;-0.001;
20190908_141750;0.230;9.167;-2.844;0.004;0.002;0.000;
20190908_141750;0.132;9.112;-2.765;0.007;0.002;0.000;
20190908_141750;0.163;9.167;-2.801;0.004;0.001;-0.002;
20190908_141750;0.247;9.246;-2.818;0.001;0.003;0.003;
20190908_141750;0.194;9.251;-2.840;0.002;0.002;0.002;
20190908_141750;0.206;9.416;-2.880;0.005;0.002;0.002;
20190908_141750;0.225;9.373;-2.897;0.002;0.003;0.003;
20190908_141750;0.311;9.440;-2.902;0.005;0.002;0.002;
20190908_141750;0.230;9.467;-2.926;0.004;0.002;-0.001;
20190908_141750;0.184;9.392;-2.871;0.002;-0.000;-0.003;
20190908_141751;0.247;9.419;-2.835;0.005;-0.000;-0.003;
20190908_141751;0.347;9.481;-2.962;0.003;0.001;-0.003;
20190908_141751;0.273;9.474;-2.854;0.005;0.002;0.002;
20190908_141751;0.237;9.567;-2.883;0.004;0.002;0.003;
20190908_141751;0.172;9.620;-2.911;0.005;0.002;0.003;
20190908_141751;0.271;9.558;-2.962;0.004;0.004;0.004;
20190908_141751;0.235;9.610;-2.866;0.007;0.002;0.005;
20190908_141751;0.225;9.682;-2.986;0.007;0.002;0.002;
20190908_141751;0.261;9.641;-2.971;-0.000;0.003;0.003;
20190908_141752;0.232;9.610;-2.942;0.005;0.003;-0.002;
20190908_141752;0.256;9.637;-2.986;0.005;-0.000;-0.002;
20190908_141752;0.261;9.687;-2.978;0.004;0.002;-0.003;
20190908_141752;0.273;9.606;-2.950;0.004;0.002;-0.002;
20190908_141752;0.335;9.778;-3.002;0.005;0.002;-0.001;
20190908_141752;0.311;9.744;-3.005;0.005;0.002;0.000;
20190908_141752;0.254;9.747;-3.007;0.004;0.003;0.003;
20190908_141752;0.180;9.838;-3.017;0.006;0.004;0.004;
20190908_141752;0.254;9.919;-3.026;0.005;0.003;0.005;
20190908_141752;0.290;9.802;-3.012;0.004;0.003;0.002;
20190908_141753;0.366;9.713;-2.986;0.005;0.002;-0.001;
20190908_141753;0.345;9.816;-3.065;0.004;0.003;-0.001;
20190908_141753;0.177;9.752;-2.959;0.006;-0.000;-0.003;
20190908_141753;0.151;9.641;-2.962;0.002;0.002;-0.003;
20190908_141753;0.338;9.656;-2.926;-0.000;-0.000;-0.006;
20190908_141753;0.429;9.862;-3.012;0.004;0.001;-0.008;
20190908_141753;0.297;9.754;-2.974;0.002;-0.002;-0.008;
20190908_141753;0.223;9.610;-2.959;0.004;-0.000;-0.008;
20190908_141753;0.297;9.670;-2.928;-0.002;0.003;-0.003;
20190908_141753;0.220;9.708;-2.981;0.002;0.003;0.000;
20190908_141754;0.096;9.550;-2.945;0.008;0.001;0.003;
20190908_141754;0.168;9.548;-2.907;0.002;0.004;0.006;
20190908_141754;0.175;9.792;-3.127;0.009;0.004;0.007;
20190908_141754;0.381;9.893;-2.950;0.004;0.002;0.000;
20190908_141754;0.452;9.919;-3.053;0.007;0.001;-0.004;
20190908_141754;0.244;9.917;-3.041;0.007;-0.000;-0.011;
20190908_141754;0.105;9.718;-3.045;-0.004;0.005;-0.005;
20190908_141754;0.139;9.752;-2.957;0.005;0.001;-0.005;
20190908_141754;0.304;9.890;-3.043;0.004;0.003;-0.002;
20190908_141755;0.280;9.725;-2.957;0.004;0.003;-0.003;
20190908_141755;0.314;9.550;-2.911;0.003;0.001;-0.005;
20190908_141755;0.144;9.459;-2.933;0.007;-0.002;-0.008;
20190908_141755;0.199;9.321;-2.954;0.002;0.003;0.003;
20190908_141755;0.208;9.665;-2.923;0.003;0.005;0.007;
20190908_141755;0.373;9.558;-2.950;0.003;0.004;0.009;
20190908_141755;0.390;9.811;-2.954;0.005;0.004;0.008;
20190908_141755;0.376;9.876;-3.014;0.009;0.002;0.003;
20190908_141755;0.369;9.811;-3.019;0.003;0.003;-0.001;
20190908_141755;0.452;9.708;-2.952;-0.002;0.005;-0.006;
20190908_141756;0.220;9.493;-2.808;0.002;0.002;-0.005;
20190908_141756;0.271;9.780;-3.017;0.007;-0.000;-0.004;
20190908_141756;0.158;9.708;-2.818;0.001;0.005;0.000;
20190908_141756;0.285;9.871;-3.060;0.009;0.005;0.005;
20190908_141756;0.211;9.644;-2.983;0.002;0.003;0.002;
20190908_141756;0.263;9.725;-2.986;0.003;0.005;0.000;
20190908_141756;0.316;9.776;-2.957;0.002;0.004;0.000;
20190908_141756;0.326;9.699;-2.983;0.003;0.002;-0.004;
20190908_141756;0.323;9.759;-2.930;0.004;0.002;-0.006;
20190908_141757;0.350;9.685;-2.902;0.002;0.001;-0.006;
20190908_141757;0.239;9.752;-2.926;0.004;0.002;-0.005;
20190908_141757;0.316;9.543;-2.964;0.002;0.002;-0.004;
20190908_141757;0.230;9.495;-2.883;0.003;0.005;0.000;
20190908_141757;0.225;9.495;-2.890;-0.000;0.005;0.003;
20190908_141757;0.259;9.347;-2.852;-0.003;0.006;0.005;
20190908_141757;0.168;9.507;-2.878;0.004;0.004;0.003;
20190908_141757;0.311;9.653;-2.895;-0.021;0.006;0.003;
20190908_141757;0.304;9.646;-2.856;-0.015;0.004;-0.001;
20190908_141757;0.364;9.596;-2.837;-0.009;0.001;-0.002;
20190908_141758;0.120;9.507;-2.823;0.019;0.004;0.000;
20190908_141758;0.189;9.646;-2.921;0.017;0.005;0.004;
20190908_141758;0.278;9.610;-2.897;0.017;0.004;-0.001;
20190908_141758;0.397;9.656;-2.981;0.029;0.005;0.002;
20190908_141758;0.220;9.651;-2.792;0.022;0.002;-0.003;
20190908_141758;0.218;9.546;-2.890;0.011;0.004;-0.004;
20190908_141758;0.206;9.716;-3.084;0.006;0.002;0.000;
20190908_141758;0.220;9.778;-3.000;0.003;0.004;-0.001;
20190908_141758;0.306;9.706;-3.050;0.008;0.002;-0.002;
20190908_141759;0.299;9.876;-3.093;-0.008;0.003;-0.002;
20190908_141759;0.237;9.816;-3.029;-0.021;0.003;-0.001;
20190908_141759;0.311;9.754;-3.036;0.014;0.003;-0.004;
20190908_141759;0.314;9.826;-3.053;-0.002;0.004;-0.001;
20190908_141759;0.249;9.747;-3.072;-0.000;0.003;-0.002;
20190908_141759;0.189;9.720;-3.010;-0.000;0.003;-0.002;
20190908_141759;0.342;9.728;-3.033;-0.006;0.004;-0.003;
20190908_141759;0.261;9.728;-3.014;-0.009;0.003;-0.003;
20190908_141759;0.280;9.766;-3.057;0.017;0.001;-0.006;
20190908_141759;0.278;9.651;-3.050;-0.003;0.004;-0.004;
20190908_141800;0.290;9.785;-3.026;0.001;0.002;-0.005;
20190908_141800;0.201;9.754;-3.053;0.003;0.002;-0.006;
20190908_141800;0.330;9.785;-3.053;0.003;0.002;-0.005;
20190908_141800;0.235;9.764;-3.074;0.006;0.003;-0.003;
20190908_141800;0.196;9.833;-3.146;0.006;0.002;-0.005;
20190908_141800;0.287;9.761;-3.086;0.003;0.003;-0.005;
20190908_141800;0.244;9.819;-3.132;0.002;0.002;-0.004;
20190908_141800;0.172;9.756;-3.062;0.002;0.004;-0.003;
20190908_141800;0.213;9.799;-3.256;0.011;-0.000;-0.003;
20190908_141801;0.196;9.723;-3.024;-0.005;0.002;-0.002;
20190908_141801;0.225;9.713;-3.180;0.005;-0.000;-0.002;
20190908_141801;0.285;9.795;-3.033;-0.000;0.004;-0.002;
20190908_141801;0.235;9.735;-3.163;0.001;0.001;-0.003;
20190908_141801;0.280;9.663;-3.048;-0.002;0.003;-0.003;
20190908_141801;0.326;9.663;-3.124;-0.003;0.003;-0.004;
20190908_141801;0.287;9.677;-3.168;-0.002;0.002;-0.004;
20190908_141801;0.225;9.725;-3.349;0.014;-0.003;-0.004;
20190908_141801;0.347;9.553;-3.060;-0.002;0.004;-0.003;
20190908_141802;0.285;9.582;-3.021;0.003;0.001;-0.005;
20190908_141802;0.280;9.629;-3.191;-0.004;0.003;-0.004;
20190908_141802;0.278;9.603;-3.129;-0.004;0.001;-0.004;
20190908_141802;0.294;9.565;-3.103;0.007;0.001;-0.003;
20190908_141802;0.273;9.519;-3.077;0.007;-0.000;-0.004;
20190908_141802;0.206;9.503;-3.129;-0.004;0.001;-0.004;
20190908_141802;0.215;9.500;-3.115;0.005;0.002;-0.005;
20190908_141802;0.273;9.457;-3.120;0.013;0.002;-0.003;
20190908_141802;0.211;9.431;-3.115;-0.002;0.001;-0.002;
20190908_141802;0.189;9.409;-3.089;0.007;0.004;-0.002;
20190908_141803;0.168;9.409;-3.084;0.004;0.002;0.000;
20190908_141803;0.144;9.462;-3.175;0.003;0.004;0.003;
20190908_141803;0.163;9.483;-3.124;0.006;0.003;0.002;
20190908_141803;0.261;9.479;-3.077;0.036;0.001;0.000;
20190908_141803;0.151;9.467;-3.237;0.007;0.003;0.003;
20190908_141803;0.251;9.531;-3.235;0.006;0.003;0.002;
20190908_141803;0.170;9.371;-3.182;-0.006;0.003;0.004;
20190908_141803;0.096;9.467;-3.160;-0.002;0.002;0.000;
20190908_141803;0.127;9.361;-3.175;0.012;0.002;0.000;
20190908_141804;0.230;9.416;-3.191;0.004;0.003;-0.001;
20190908_141804;0.127;9.273;-3.091;0.003;0.001;-0.004;
20190908_141804;0.144;9.388;-3.256;0.004;0.001;-0.002;
20190908_141804;0.136;9.328;-3.235;0.016;-0.000;-0.002;
20190908_141804;0.156;9.397;-3.218;0.014;-0.000;-0.003;
20190908_141804;0.187;9.309;-3.235;0.006;0.001;-0.005;
20190908_141804;0.237;9.280;-3.144;0.005;0.001;-0.004;
20190908_141804;0.122;9.359;-3.196;-0.002;-0.000;-0.005;
20190908_141804;0.117;9.297;-3.170;-0.010;0.001;-0.002;
20190908_141804;0.069;9.364;-3.148;-0.028;0.003;-0.001;
20190908_141805;0.127;9.352;-3.084;-0.058;0.005;0.003;
20190908_141805;0.165;9.416;-2.981;-0.119;-0.003;0.005;
20190908_141805;0.208;9.440;-3.376;0.022;0.004;0.004;
20190908_141805;0.239;9.414;-2.787;-0.003;0.007;0.007;
20190908_141805;0.180;9.354;-2.825;-0.046;0.010;0.003;
20190908_141805;0.206;9.371;-2.875;0.018;-0.000;-0.001;
20190908_141805;0.237;9.495;-2.971;0.002;-0.000;-0.001;
20190908_141805;0.215;9.483;-3.055;0.004;-0.000;-0.003;
20190908_141805;0.237;9.457;-3.021;-0.016;0.002;-0.002;
20190908_141806;0.239;9.503;-2.950;0.023;0.001;-0.006;
20190908_141806;0.170;9.337;-2.813;-0.005;0.001;-0.005;
20190908_141806;0.184;9.488;-2.863;0.025;0.001;-0.004;
20190908_141806;0.223;9.452;-2.983;0.001;-0.003;-0.004;
20190908_141806;0.213;9.505;-3.048;0.029;-0.002;-0.006;
20190908_141806;0.218;9.294;-2.986;0.009;-0.002;-0.009;
20190908_141806;0.220;9.316;-2.950;0.001;-0.002;-0.008;
20190908_141806;0.247;9.258;-3.026;-0.003;0.001;-0.004;
20190908_141806;0.254;9.309;-2.966;0.021;-0.000;-0.005;
20190908_141806;0.084;9.222;-2.842;0.012;-0.002;-0.006;
20190908_141807;0.259;9.316;-2.988;0.006;0.002;-0.004;
20190908_141807;0.165;9.249;-2.976;0.010;-0.002;-0.007;
20190908_141807;0.144;9.230;-2.909;0.005;-0.000;-0.005;
20190908_141807;0.141;9.316;-2.942;-0.000;0.001;-0.003;
20190908_141807;0.237;9.292;-2.976;-0.003;-0.000;-0.005;
20190908_141807;0.206;9.325;-2.942;0.006;-0.002;-0.004;
20190908_141807;0.208;9.261;-2.990;-0.000;-0.002;-0.005;
20190908_141807;0.165;9.402;-3.043;0.004;-0.000;-0.002;
20190908_141807;0.235;9.352;-2.959;-0.004;0.001;-0.005;
20190908_141808;0.194;9.416;-3.093;0.013;0.001;-0.003;
20190908_141808;0.206;9.426;-2.966;0.007;-0.000;-0.003;
20190908_141808;0.227;9.474;-3.024;0.007;-0.002;-0.005;
20190908_141808;0.187;9.388;-2.986;-0.006;0.001;-0.007;
20190908_141808;0.213;9.431;-2.981;-0.003;-0.000;-0.006;
20190908_141808;0.225;9.452;-3.029;-0.000;-0.000;-0.004;
20190908_141808;0.206;9.397;-2.986;-0.002;-0.000;-0.005;
20190908_141808;0.189;9.424;-3.019;-0.009;-0.002;-0.003;
20190908_141808;0.283;9.366;-2.986;0.007;-0.000;-0.005;
20190908_141808;0.206;9.333;-2.952;-0.004;0.001;-0.003;
20190908_141809;0.194;9.395;-2.964;-0.006;0.003;-0.001;
20190908_141809;0.201;9.349;-2.938;0.011;0.002;-0.002;
20190908_141809;0.275;9.359;-2.998;-0.006;0.003;0.002;
20190908_141809;0.261;9.407;-2.923;-0.005;0.001;-0.002;
20190908_141809;0.227;9.349;-2.988;-0.002;-0.000;-0.002;
20190908_141809;0.263;9.414;-2.962;0.005;-0.000;-0.004;
20190908_141809;0.251;9.390;-2.988;-0.004;0.001;-0.003;
20190908_141809;0.175;9.529;-2.978;-0.002;-0.000;-0.003;
20190908_141809;0.189;9.534;-3.065;-0.000;0.001;-0.002;
20190908_141809;0.235;9.448;-3.031;0.001;0.001;-0.002;
20190908_141810;0.199;9.471;-2.998;0.005;-0.000;-0.001;
20190908_141810;0.204;9.531;-3.053;-0.002;0.001;-0.001;
20190908_141810;0.249;9.522;-3.000;-0.006;0.001;-0.002;
20190908_141810;0.273;9.534;-3.048;-0.000;0.001;-0.004;
20190908_141810;0.211;9.507;-3.012;0.004;-0.000;-0.006;
20190908_141810;0.177;9.469;-2.995;-0.009;0.001;-0.003;
20190908_141810;0.249;9.560;-3.029;-0.000;0.002;-0.002;
20190908_141810;0.266;9.524;-3.055;0.006;0.001;-0.002;
20190908_141810;0.232;9.500;-3.045;0.004;0.002;0.000;
20190908_141811;0.189;9.527;-3.065;0.001;0.002;0.000;
20190908_141811;0.184;9.505;-3.033;-0.004;0.003;0.000;
20190908_141811;0.237;9.589;-3.057;0.003;0.002;0.000;
20190908_141811;0.187;9.608;-3.096;-0.013;0.001;0.000;
20190908_141811;0.160;9.550;-3.033;0.007;0.002;-0.003;
20190908_141811;0.206;9.574;-3.029;-0.000;0.001;-0.002;
20190908_141811;0.177;9.553;-3.057;0.012;0.001;-0.003;
20190908_141811;0.180;9.436;-3.007;0.003;-0.002;-0.003;
20190908_141811;0.146;9.414;-3.060;0.001;0.002;0.000;
20190908_141811;0.201;9.428;-3.033;0.003;0.001;-0.003;
20190908_141812;0.132;9.498;-3.041;0.005;-0.000;-0.002;
20190908_141812;0.194;9.373;-3.062;0.001;0.001;-0.003;
20190908_141812;0.189;9.491;-3.043;0.010;-0.002;-0.004;
20190908_141812;0.225;9.538;-3.062;0.007;-0.002;-0.006;
20190908_141812;0.225;9.436;-3.026;0.007;-0.000;-0.006;
20190908_141812;0.168;9.431;-3.033;0.002;-0.002;-0.006;
20190908_141812;0.136;9.361;-3.007;-0.000;0.002;-0.005;
20190908_141812;0.163;9.392;-3.043;-0.003;0.002;-0.004;
20190908_141812;0.170;9.263;-2.971;0.006;0.001;-0.003;
20190908_141813;0.182;9.443;-3.086;0.001;0.001;0.002;
20190908_141813;0.136;9.347;-3.021;0.008;-0.000;0.000;
20190908_141813;0.172;9.340;-3.057;-0.002;0.002;0.005;
20190908_141813;0.141;9.395;-3.036;-0.000;0.001;0.005;
20190908_141813;0.141;9.335;-3.012;-0.000;0.003;0.003;
20190908_141813;0.237;9.476;-3.005;0.002;0.001;0.000;
20190908_141813;0.218;9.471;-3.041;-0.000;-0.000;-0.003;
20190908_141813;0.172;9.428;-3.041;0.001;-0.000;-0.004;
20190908_141813;0.158;9.385;-3.038;-0.000;-0.002;-0.006;
20190908_141813;0.204;9.467;-3.038;0.002;-0.000;-0.005;
20190908_141814;0.223;9.436;-3.089;0.004;-0.000;-0.004;
20190908_141814;0.242;9.471;-3.029;0.001;-0.000;-0.005;
20190908_141814;0.211;9.534;-3.065;0.003;-0.000;-0.004;
20190908_141814;0.101;9.328;-3.012;0.004;-0.000;-0.005;
20190908_141814;0.160;9.251;-3.033;0.001;-0.000;-0.002;
20190908_141814;0.139;9.242;-3.050;-0.004;0.003;-0.001;
20190908_141814;0.194;9.402;-2.983;-0.003;-0.000;0.000;
20190908_141814;0.283;9.364;-3.024;0.005;0.002;-0.001;
20190908_141814;0.268;9.261;-3.010;0.004;-0.000;-0.002;
20190908_141815;0.192;9.333;-3.043;-0.002;-0.002;-0.003;
20190908_141815;0.251;9.335;-2.974;-0.000;0.001;-0.004;
20190908_141815;0.177;9.290;-3.012;0.003;0.001;-0.003;
20190908_141815;0.220;9.397;-3.048;0.006;-0.000;0.000;
20190908_141815;0.206;9.347;-3.024;0.004;-0.000;-0.002;
20190908_141815;0.278;9.328;-3.002;0.002;-0.000;-0.003;
20190908_141815;0.182;9.380;-3.050;-0.000;0.002;-0.002;
20190908_141815;0.184;9.335;-3.067;0.002;-0.000;-0.003;
20190908_141815;0.077;9.313;-2.971;0.001;-0.000;-0.003;
20190908_141815;0.196;9.328;-2.981;0.002;0.001;-0.003;
20190908_141816;0.163;9.383;-2.969;-0.003;0.001;-0.003;
20190908_141816;0.199;9.345;-3.038;0.001;-0.002;-0.004;
20190908_141816;0.134;9.273;-3.038;0.001;-0.002;-0.005;
20190908_141816;0.170;9.488;-3.077;-0.002;-0.000;-0.003;
20190908_141816;0.148;9.424;-3.055;0.006;-0.000;-0.004;
20190908_141816;0.213;9.455;-3.026;-0.004;-0.000;-0.004;
20190908_141816;0.132;9.376;-3.024;-0.000;0.001;-0.004;
20190908_141816;0.096;9.445;-3.074;0.002;-0.002;-0.003;
20190908_141816;0.103;9.553;-3.103;0.001;-0.000;-0.002;
20190908_141816;0.184;9.416;-3.067;0.005;0.001;-0.002;
20190908_141817;0.151;9.476;-3.105;-0.002;0.002;0.000;
20190908_141817;0.127;9.479;-3.146;0.004;0.001;0.002;
20190908_141817;0.172;9.316;-2.993;0.001;-0.002;-0.001;
20190908_141817;0.266;9.354;-3.093;0.001;0.002;0.002;
20190908_141817;0.268;9.349;-3.074;0.003;-0.000;0.002;
20190908_141817;0.134;9.182;-3.002;0.002;-0.000;0.000;
20190908_141817;0.261;9.232;-3.065;0.003;-0.000;0.002;
20190908_141817;0.297;9.285;-3.091;0.003;0.001;0.002;
20190908_141817;0.290;9.337;-3.072;0.001;-0.000;-0.003;
20190908_141818;0.271;9.222;-3.041;-0.000;-0.000;-0.006;
20190908_141818;0.239;9.354;-3.098;0.003;-0.002;-0.005;
20190908_141818;0.215;9.280;-3.060;0.003;-0.002;-0.004;
20190908_141818;0.192;9.325;-3.151;0.003;-0.000;-0.002;
20190908_141818;0.213;9.335;-3.136;0.002;-0.000;-0.003;
20190908_141818;0.206;9.486;-3.182;0.005;-0.002;-0.002;
20190908_141818;0.239;9.457;-3.218;0.001;-0.000;-0.001;
20190908_141818;0.268;9.383;-3.182;0.002;0.001;-0.001;
20190908_141818;0.220;9.476;-3.225;0.002;-0.002;-0.001;
20190908_141818;0.196;9.455;-3.251;0.002;-0.000;0.000;
20190908_141819;0.218;9.455;-3.168;-0.000;0.001;-0.001;
20190908_141819;0.204;9.436;-3.247;0.002;-0.000;-0.002;
20190908_141819;0.242;9.426;-3.254;0.002;-0.002;-0.001;
20190908_141819;0.208;9.459;-3.196;0.001;-0.000;-0.003;
20190908_141819;0.235;9.354;-3.206;0.001;-0.000;-0.005;
20190908_141819;0.194;9.385;-3.244;0.002;0.001;-0.003;
20190908_141819;0.177;9.299;-3.182;0.002;0.001;-0.004;
20190908_141819;0.206;9.347;-3.168;0.001;-0.000;-0.002;
20190908_141819;0.239;9.292;-3.242;0.003;0.001;-0.002;
20190908_141820;0.175;9.419;-3.223;0.003;-0.000;-0.001;
20190908_141820;0.192;9.270;-3.237;0.001;0.001;-0.002;
20190908_141820;0.184;9.258;-3.189;0.001;0.002;0.000;
20190908_141820;0.153;9.266;-3.213;0.001;0.001;-0.003;
20190908_141820;0.175;9.328;-3.220;0.004;0.001;-0.003;
20190908_141820;0.199;9.215;-3.203;0.002;-0.002;-0.004;
20190908_141820;0.194;9.096;-3.158;0.001;-0.000;-0.006;
20190908_141820;0.163;9.165;-3.168;0.002;0.001;-0.004;
20190908_141820;0.120;9.167;-3.199;0.001;-0.000;-0.002;
20190908_141821;0.141;9.261;-3.148;0.002;-0.002;-0.002;
20190908_141821;0.127;9.357;-3.261;0.002;-0.000;0.000;
20190908_141821;0.211;9.323;-3.239;0.003;0.002;-0.002;
20190908_141821;0.201;9.299;-3.227;0.004;0.001;-0.001;
20190908_141821;0.139;9.369;-3.242;0.002;-0.000;-0.003;
20190908_141821;0.225;9.306;-3.244;0.001;-0.000;-0.005;
20190908_141821;0.297;9.261;-3.235;-0.002;-0.000;-0.005;
20190908_141821;0.156;9.263;-3.182;0.007;-0.000;-0.004;
20190908_141821;0.156;9.349;-3.266;0.003;0.002;-0.002;
20190908_141821;0.251;9.246;-3.220;-0.002;0.002;-0.003;
20190908_141822;0.177;9.361;-3.237;0.003;-0.002;-0.004;
20190908_141822;0.189;9.316;-3.268;-0.000;-0.000;-0.002;
20190908_141822;0.280;9.256;-3.141;0.002;0.002;-0.003;
20190908_141822;0.235;9.230;-3.196;0.002;0.001;-0.003;
20190908_141822;0.187;9.210;-3.199;0.001;0.001;-0.003;
20190908_141822;0.218;9.177;-3.172;0.004;0.001;-0.004;
20190908_141822;0.218;9.237;-3.230;0.002;-0.002;-0.004;
20190908_141822;0.192;9.347;-3.208;0.004;-0.000;-0.004;
20190908_141822;0.223;9.364;-3.239;0.001;0.001;-0.005;
20190908_141823;0.261;9.438;-3.232;0.002;0.001;-0.005;
20190908_141823;0.213;9.407;-3.282;0.002;0.001;-0.004;
20190908_141823;0.189;9.445;-3.306;0.003;-0.000;-0.003;
20190908_141823;0.208;9.397;-3.254;0.001;0.002;-0.003;
20190908_141823;0.227;9.390;-3.273;0.002;0.001;-0.002;
20190908_141823;0.172;9.359;-3.278;0.002;0.001;-0.001;
20190908_141823;0.211;9.323;-3.232;0.001;0.002;-0.002;
20190908_141823;0.254;9.345;-3.263;0.002;0.002;-0.002;
20190908_141823;0.160;9.323;-3.263;0.001;0.001;-0.002;
20190908_141823;0.158;9.282;-3.218;-0.000;0.001;-0.002;
20190908_141824;0.175;9.299;-3.227;-0.003;0.002;-0.001;
20190908_141824;0.175;9.335;-3.247;0.001;0.002;0.000;
20190908_141824;0.254;9.237;-3.201;0.001;0.002;0.002;
20190908_141824;0.225;9.251;-3.218;0.002;0.002;0.002;
20190908_141824;0.239;9.225;-3.184;0.002;0.002;0.002;
20190908_141824;0.136;9.151;-3.187;-0.000;0.002;0.002;
20190908_141824;0.180;9.201;-3.208;0.001;0.002;0.002;
20190908_141824;0.180;9.227;-3.203;0.002;0.002;0.000;
20190908_141824;0.187;9.230;-3.184;0.001;0.001;0.002;
20190908_141824;0.194;9.366;-3.249;0.002;0.003;0.000;
20190908_141825;0.249;9.278;-3.235;-0.000;0.002;-0.001;
20190908_141825;0.256;9.304;-3.182;0.001;0.002;-0.002;
20190908_141825;0.206;9.407;-3.244;-0.000;0.001;-0.003;
20190908_141825;0.215;9.325;-3.259;-0.000;0.001;-0.002;
20190908_141825;0.266;9.304;-3.251;0.001;0.001;-0.004;
20190908_141825;0.204;9.318;-3.268;0.002;0.001;-0.003;
20190908_141825;0.211;9.450;-3.146;0.001;0.002;-0.004;
20190908_141825;0.184;9.328;-3.184;-0.003;0.002;0.000;
20190908_141825;0.237;9.397;-3.172;0.001;0.001;-0.001;
20190908_141826;0.129;9.287;-3.086;-0.003;0.002;0.002;
20190908_141826;0.158;9.251;-3.120;0.002;0.002;0.004;
20190908_141826;0.189;9.251;-3.146;0.001;0.002;0.003;
20190908_141826;0.249;9.380;-3.108;0.001;0.002;0.003;
20190908_141826;0.256;9.323;-3.105;-0.000;0.001;-0.001;
20190908_141826;0.235;9.249;-3.079;-0.003;0.001;-0.002;
20190908_141826;0.232;9.282;-3.053;-0.000;-0.000;-0.003;
20190908_141826;0.251;9.328;-3.089;0.001;-0.000;-0.004;
20190908_141826;0.278;9.285;-3.014;-0.002;-0.000;-0.005;
20190908_141827;0.302;9.244;-2.998;0.001;-0.000;-0.006;
20190908_141827;0.232;9.263;-3.038;-0.003;0.001;-0.005;
20190908_141827;0.256;9.232;-2.962;-0.000;-0.000;-0.007;
20190908_141827;0.230;9.354;-2.933;0.001;0.001;-0.003;
20190908_141827;0.261;9.136;-2.983;-0.000;0.001;-0.003;
20190908_141827;0.244;9.280;-2.988;0.001;-0.000;-0.002;
20190908_141827;0.266;9.309;-2.964;-0.000;0.003;0.000;
20190908_141827;0.275;9.345;-2.957;0.002;0.002;0.002;
20190908_141827;0.306;9.268;-2.935;0.001;0.002;-0.001;
20190908_141827;0.192;9.268;-2.926;-0.000;0.002;-0.001;
20190908_141828;0.180;9.278;-2.895;-0.002;0.002;-0.001;
20190908_141828;0.199;9.237;-2.916;-0.000;0.003;0.002;
20190908_141828;0.230;9.246;-2.868;0.001;0.002;0.000;
20190908_141828;0.218;9.359;-2.911;0.001;0.002;-0.001;
20190908_141828;0.215;9.318;-2.863;-0.000;0.002;-0.002;
20190908_141828;0.273;9.318;-2.904;0.001;0.002;-0.002;
20190908_141828;0.263;9.373;-2.899;0.004;0.001;-0.002;
20190908_141828;0.139;9.316;-2.840;-0.000;0.001;-0.003;
20190908_141828;0.261;9.261;-2.907;-0.000;0.001;-0.003;
20190908_141829;0.172;9.335;-2.880;0.003;-0.000;-0.001;
20190908_141829;0.148;9.390;-2.866;0.001;-0.000;0.000;
20190908_141829;0.184;9.285;-2.880;0.001;0.002;-0.001;
20190908_141829;0.263;9.426;-2.895;0.001;0.002;0.000;
20190908_141829;0.160;9.421;-2.849;-0.002;0.001;0.000;
20190908_141829;0.239;9.323;-2.844;0.001;0.003;-0.001;
20190908_141829;0.251;9.263;-2.863;0.002;0.001;-0.001;
20190908_141829;0.208;9.179;-2.780;0.001;0.003;-0.001;
20190908_141829;0.199;9.278;-2.828;0.003;-0.000;-0.002;
20190908_141829;0.187;9.263;-2.832;0.003;0.001;-0.002;
20190908_141830;0.153;9.337;-2.880;0.004;0.002;0.000;
20190908_141830;0.204;9.464;-2.916;0.004;0.001;0.000;
20190908_141830;0.208;9.498;-2.863;0.003;0.001;0.000;
20190908_141830;0.237;9.594;-2.950;0.003;0.001;0.000;
20190908_141830;0.170;9.471;-2.902;0.004;0.001;-0.001;
20190908_141830;0.259;9.574;-2.969;0.003;0.002;0.000;
20190908_141830;0.235;9.495;-2.892;0.001;0.001;-0.002;
20190908_141830;0.196;9.548;-2.947;0.004;0.001;-0.001;
20190908_141830;0.232;9.591;-2.942;-0.000;-0.000;-0.001;
20190908_141831;0.213;9.445;-2.856;0.002;-0.000;-0.004;
20190908_141831;0.232;9.309;-2.849;0.002;-0.002;-0.003;
20190908_141831;0.187;9.301;-2.871;-0.000;-0.000;-0.003;
20190908_141831;0.247;9.313;-2.820;0.003;-0.002;-0.003;
20190908_141831;0.259;9.268;-2.813;0.003;-0.000;-0.003;
20190908_141831;0.278;9.258;-2.830;-0.000;-0.000;-0.003;
20190908_141831;0.187;9.251;-2.741;-0.000;-0.000;-0.002;
20190908_141831;0.180;9.232;-2.832;0.001;0.002;0.000;
20190908_141831;0.333;9.242;-2.739;0.002;0.001;0.000;
20190908_141832;0.196;9.103;-2.715;-0.000;-0.000;-0.001;
20190908_141832;0.237;9.172;-2.801;0.003;0.001;0.000;
20190908_141832;0.239;9.098;-2.739;0.001;-0.000;0.002;
20190908_141832;0.213;9.038;-2.761;0.004;0.001;0.000;
20190908_141832;0.199;9.143;-2.772;-0.000;0.002;0.000;
20190908_141832;0.251;9.153;-2.715;0.002;0.002;-0.001;
20190908_141832;0.211;9.191;-2.686;0.003;0.001;0.002;
20190908_141832;0.239;9.041;-2.717;0.002;-0.000;-0.001;
20190908_141832;0.247;9.041;-2.768;0.003;0.002;0.000;
20190908_141832;0.280;8.954;-2.715;0.002;0.002;0.000;
20190908_141833;0.182;9.117;-2.737;-0.000;0.002;0.002;
20190908_141833;0.168;9.074;-2.689;0.003;0.002;0.000;
20190908_141833;0.218;9.165;-2.787;0.004;0.001;0.002;
20190908_141833;0.242;9.079;-2.729;-0.000;0.002;0.000;
20190908_141833;0.254;9.179;-2.758;0.004;0.002;0.002;
20190908_141833;0.235;9.136;-2.720;0.003;0.001;0.000;
20190908_141833;0.218;9.103;-2.761;0.003;-0.002;-0.002;
20190908_141833;0.227;8.969;-2.658;-0.000;0.002;-0.003;
20190908_141833;0.192;9.163;-2.768;-0.003;-0.000;-0.001;
20190908_141834;0.220;9.141;-2.682;-0.000;-0.000;-0.003;
20190908_141834;0.151;9.088;-2.737;-0.000;0.002;-0.002;
20190908_141834;0.235;9.124;-2.801;0.002;-0.000;-0.002;
20190908_141834;0.180;9.043;-2.634;0.001;0.001;-0.001;
20190908_141834;0.244;9.000;-2.806;-0.003;0.003;0.003;
20190908_141834;0.251;9.038;-2.710;0.004;0.002;0.002;
20190908_141834;0.168;9.091;-2.717;0.002;0.003;0.000;
20190908_141834;0.316;9.024;-2.658;-0.000;0.001;0.002;
20190908_141834;0.292;9.091;-2.739;0.002;0.001;-0.001;
20190908_141834;0.342;9.084;-2.713;0.001;0.002;0.000;
20190908_141835;0.254;8.935;-2.665;-0.000;0.002;-0.001;
20190908_141835;0.187;8.985;-2.720;0.002;0.002;0.000;
20190908_141835;0.208;8.954;-2.765;0.002;0.001;-0.001;
20190908_141835;0.273;9.153;-2.715;0.002;0.002;0.000;
20190908_141835;0.215;9.287;-2.689;0.003;0.002;0.000;
20190908_141835;0.158;8.902;-2.768;-0.002;0.002;0.002;
20190908_141835;0.177;9.072;-2.794;-0.000;0.002;0.002;
20190908_141835;0.225;9.148;-2.701;-0.000;0.001;0.000;
20190908_141835;0.340;9.062;-2.801;0.001;0.002;-0.001;
20190908_141836;0.261;9.251;-2.729;-0.003;0.002;-0.001;
20190908_141836;0.242;9.009;-2.689;0.002;-0.000;-0.003;
20190908_141836;0.266;9.278;-2.746;-0.002;0.003;-0.003;
20190908_141836;0.232;8.997;-2.696;-0.000;-0.000;-0.006;
20190908_141836;0.220;9.057;-2.713;0.003;0.002;-0.004;
20190908_141836;0.077;9.021;-2.799;-0.000;0.001;-0.003;
20190908_141836;0.163;9.110;-2.674;-0.000;0.002;-0.002;
20190908_141836;0.204;9.239;-2.794;0.002;0.002;-0.001;
20190908_141836;0.278;9.220;-2.782;-0.002;0.001;-0.003;
20190908_141837;0.187;9.100;-2.698;-0.004;0.002;-0.004;
20190908_141837;0.177;9.057;-2.737;-0.005;-0.000;-0.003;
20190908_141837;0.175;8.930;-2.636;-0.000;-0.000;-0.004;
20190908_141837;0.148;8.679;-2.607;-0.002;0.001;-0.004;
20190908_141837;0.242;8.856;-2.725;-0.000;0.001;-0.003;
20190908_141837;0.194;8.859;-2.600;-0.003;0.001;-0.004;
20190908_141837;0.297;8.885;-2.725;0.006;-0.000;-0.005;
20190908_141837;0.220;8.969;-2.775;-0.000;-0.000;-0.006;
20190908_141837;0.230;9.017;-2.612;-0.002;0.002;-0.006;
20190908_141837;0.182;8.952;-2.667;0.001;-0.002;-0.007;
20190908_141838;0.273;9.122;-2.849;0.001;-0.002;-0.007;
20190908_141838;0.376;9.096;-2.746;0.001;-0.002;-0.008;
20190908_141838;0.266;9.045;-2.741;0.003;0.001;-0.009;
20190908_141838;0.194;9.096;-2.691;0.001;-0.002;-0.009;
20190908_141838;0.129;8.997;-2.650;-0.002;-0.003;-0.010;
20190908_141838;0.146;9.091;-2.727;0.002;-0.002;-0.007;
20190908_141838;0.237;9.134;-2.765;0.002;-0.002;-0.007;
20190908_141838;0.168;9.160;-2.777;-0.004;-0.002;-0.007;
20190908_141838;0.235;9.234;-2.782;0.002;-0.002;-0.006;
20190908_141839;0.215;9.062;-2.823;0.004;-0.000;-0.005;
20190908_141839;0.091;9.122;-2.653;-0.004;-0.000;-0.001;
20190908_141839;0.251;9.136;-2.722;-0.003;0.002;-0.001;
20190908_141839;0.441;9.163;-2.813;0.003;0.002;-0.001;
20190908_141839;0.206;8.959;-2.753;-0.002;0.001;-0.003;
20190908_141839;0.156;9.108;-2.710;0.001;0.001;-0.002;
20190908_141839;0.239;8.947;-2.725;-0.002;0.002;-0.001;
20190908_141839;0.117;8.964;-2.689;-0.000;0.001;-0.003;
20190908_141839;0.232;9.122;-2.820;0.003;0.001;0.002;
20190908_141839;0.156;9.050;-2.741;0.001;0.001;-0.003;
20190908_141840;0.297;9.129;-2.811;-0.000;-0.000;-0.001;
20190908_141840;0.340;9.345;-2.842;0.002;-0.000;-0.002;
20190908_141840;0.235;9.158;-2.765;-0.003;0.001;-0.003;
20190908_141840;0.101;9.072;-2.713;-0.004;0.001;-0.003;
20190908_141840;0.192;9.318;-2.792;-0.000;0.001;-0.002;
20190908_141840;0.242;9.134;-2.667;-0.000;0.001;-0.004;
20190908_141840;0.242;9.041;-2.832;-0.003;0.002;-0.003;
20190908_141840;0.201;9.201;-2.782;-0.003;-0.000;-0.003;
20190908_141840;0.148;9.088;-2.727;-0.003;0.001;-0.004;
20190908_141840;0.225;9.333;-2.823;0.002;0.001;0.000;
20190908_141841;0.192;9.062;-2.796;-0.000;-0.000;-0.003;
20190908_141841;0.196;9.165;-2.892;0.001;0.002;0.003;
20190908_141841;0.294;9.249;-2.811;-0.000;0.002;0.004;
20190908_141841;0.299;9.275;-2.866;-0.002;0.001;0.003;
20190908_141841;0.108;9.091;-2.772;-0.000;0.001;0.000;
20190908_141841;0.285;9.227;-2.816;-0.000;0.002;0.000;
20190908_141841;0.177;9.165;-2.902;0.002;-0.000;-0.003;
20190908_141841;0.148;9.352;-2.926;0.001;0.001;-0.003;
20190908_141841;0.316;9.488;-2.885;0.006;-0.000;-0.004;
20190908_141842;0.170;9.383;-2.830;-0.000;0.002;-0.002;
20190908_141842;0.110;9.218;-2.899;-0.003;0.001;0.000;
20190908_141842;0.036;9.273;-2.782;-0.002;0.001;0.002;
20190908_141842;0.268;9.376;-2.938;0.004;0.001;0.003;
20190908_141842;0.144;9.318;-2.813;-0.000;0.001;0.000;
20190908_141842;0.232;9.433;-2.945;-0.002;0.002;0.002;
20190908_141842;0.247;9.426;-2.859;-0.002;-0.000;-0.002;
20190908_141842;0.192;9.390;-2.883;0.001;0.001;-0.001;
20190908_141842;0.146;9.376;-2.844;-0.000;-0.000;0.000;
20190908_141842;0.218;9.215;-2.849;-0.000;0.003;0.000;
20190908_141843;0.172;9.323;-2.863;-0.002;0.001;0.000;
20190908_141843;0.211;9.438;-2.916;-0.000;0.001;-0.001;
20190908_141843;0.273;9.385;-2.823;0.001;0.001;-0.002;
20190908_141843;0.247;9.404;-2.892;0.003;-0.002;-0.004;
20190908_141843;0.311;9.325;-2.940;-0.002;-0.000;-0.004;
20190908_141843;0.268;9.325;-2.895;-0.000;-0.002;-0.005;
20190908_141843;0.247;9.378;-2.952;0.001;-0.000;-0.006;
20190908_141843;0.208;9.431;-2.892;-0.000;-0.002;-0.003;
20190908_141843;0.127;9.369;-2.761;-0.003;-0.002;-0.003;
20190908_141844;0.271;9.335;-2.863;-0.003;-0.000;-0.003;
20190908_141844;0.206;9.304;-2.883;0.001;0.002;0.003;
20190908_141844;0.045;9.261;-2.878;-0.000;0.002;0.002;
20190908_141844;0.165;9.263;-2.887;-0.004;0.003;0.004;
20190908_141844;0.160;9.187;-2.825;0.002;0.002;0.006;
20190908_141844;0.122;9.266;-2.792;-0.004;0.002;0.005;
20190908_141844;0.237;9.445;-2.885;-0.000;0.003;0.006;
20190908_141844;0.237;9.282;-2.840;-0.005;0.002;0.004;
20190908_141844;0.168;9.177;-2.854;-0.004;0.002;0.003;
20190908_141845;0.177;9.153;-2.861;-0.003;0.001;-0.001;
20190908_141845;0.172;9.009;-2.739;-0.003;0.001;0.000;
20190908_141845;0.120;9.064;-2.808;-0.003;0.001;-0.001;
20190908_141845;0.244;9.160;-2.840;-0.002;0.001;-0.001;
20190908_141845;0.045;9.139;-2.744;-0.003;-0.000;-0.002;
20190908_141845;0.206;9.091;-2.808;0.001;-0.002;-0.002;
20190908_141845;0.160;8.964;-2.787;-0.002;-0.000;0.000;
20190908_141845;0.170;8.997;-2.713;-0.002;0.001;0.002;
20190908_141845;0.259;9.052;-2.751;0.002;0.001;0.000;
20190908_141845;0.177;9.115;-2.808;-0.003;-0.000;-0.002;
20190908_141846;0.160;9.038;-2.873;-0.002;-0.002;-0.002;
20190908_141846;0.151;9.064;-2.806;-0.000;-0.002;-0.002;
20190908_141846;0.189;9.029;-2.696;-0.003;0.001;0.000;
20190908_141846;0.158;9.098;-2.787;0.004;-0.000;-0.002;
20190908_141846;0.146;9.199;-2.808;-0.000;-0.000;-0.004;
20190908_141846;0.098;9.175;-2.665;-0.000;-0.002;-0.003;
20190908_141846;0.101;8.993;-2.751;-0.000;0.001;-0.004;
20190908_141846;0.132;9.139;-2.825;0.001;-0.002;-0.001;
20190908_141846;0.208;9.105;-2.737;0.001;-0.000;-0.002;
20190908_141847;0.304;9.206;-2.892;0.004;-0.002;-0.003;
20190908_141847;0.129;9.139;-2.825;0.005;-0.000;-0.003;
20190908_141847;0.230;9.153;-2.701;0.004;0.001;-0.002;
20190908_141847;0.132;9.105;-2.804;0.004;-0.000;-0.003;
20190908_141847;0.110;9.151;-2.677;-0.000;0.001;-0.001;
20190908_141847;0.213;9.120;-2.744;0.003;0.001;-0.003;
20190908_141847;0.299;9.275;-2.921;0.005;-0.003;-0.004;
20190908_141847;0.151;9.134;-2.835;0.001;-0.002;-0.004;
20190908_141847;0.196;9.165;-2.756;-0.000;-0.000;-0.004;
20190908_141847;0.158;9.337;-2.806;-0.002;0.003;-0.001;
20190908_141848;0.136;9.084;-2.756;-0.002;-0.000;0.000;
20190908_141848;0.278;9.371;-2.899;0.004;0.001;0.002;
20190908_141848;0.189;9.230;-2.832;0.002;-0.000;-0.001;
20190908_141848;0.148;9.388;-2.758;-0.002;0.001;0.000;
20190908_141848;0.366;9.402;-2.904;0.004;-0.000;-0.004;
20190908_141848;0.213;9.428;-2.816;0.003;-0.002;-0.003;
20190908_141848;0.160;9.251;-2.832;0.001;0.001;-0.004;
20190908_141848;0.235;9.397;-2.744;0.005;-0.002;-0.004;
20190908_141848;0.108;9.278;-2.801;0.001;0.002;-0.006;
20190908_141849;0.237;9.409;-2.859;0.003;0.001;-0.001;
20190908_141849;0.201;9.414;-2.832;0.001;0.001;-0.003;
20190908_141849;0.151;9.222;-2.746;-0.000;-0.000;-0.002;
20190908_141849;0.266;9.582;-2.928;0.005;0.001;-0.001;
20190908_141849;0.225;9.390;-2.715;0.001;0.001;-0.002;
20190908_141849;0.223;9.488;-2.772;0.003;0.001;-0.002;
20190908_141849;0.268;9.416;-2.873;0.001;-0.000;-0.005;
20190908_141849;0.323;9.266;-2.837;0.002;0.001;-0.005;
20190908_141849;0.201;9.505;-2.780;0.001;-0.000;-0.003;
20190908_141849;0.297;9.498;-2.911;0.004;-0.000;-0.003;
20190908_141850;0.122;9.251;-2.746;0.002;-0.000;-0.005;
20190908_141850;0.352;9.522;-2.813;0.004;0.002;-0.001;
20190908_141850;0.316;9.438;-2.945;0.008;0.001;-0.002;
20190908_141850;0.213;9.318;-2.765;0.002;-0.000;-0.002;
20190908_141850;0.352;9.455;-2.710;0.008;0.001;-0.002;
20190908_141850;0.235;9.354;-2.811;-0.002;0.001;-0.003;
20190908_141850;0.156;9.280;-2.775;0.003;0.001;-0.003;
20190908_141850;0.158;9.522;-2.801;0.003;-0.000;-0.002;
20190908_141850;0.254;9.234;-2.715;0.004;0.002;-0.004;
20190908_141851;0.041;9.392;-2.713;0.007;-0.003;-0.005;
20190908_141851;0.318;9.534;-2.782;0.009;-0.003;-0.002;
20190908_141851;0.345;9.586;-2.840;-0.003;0.001;-0.002;
20190908_141851;0.055;9.364;-2.624;0.001;0.001;-0.004;
20190908_141851;0.280;9.761;-2.830;0.009;0.001;0.003;
20190908_141851;0.321;9.519;-2.921;0.001;0.001;-0.005;
20190908_141851;0.201;9.625;-2.744;0.004;0.001;-0.005;
20190908_141851;0.163;9.462;-2.744;0.005;0.001;-0.004;
20190908_141851;0.101;9.483;-2.715;0.001;0.001;-0.003;
20190908_141851;0.263;9.553;-2.971;0.003;0.001;-0.003;
20190908_141852;0.314;9.694;-2.840;0.004;0.002;0.002;
20190908_141852;0.077;9.680;-2.852;0.001;0.002;-0.002;
20190908_141852;0.170;9.790;-2.847;0.005;0.002;0.000;
20190908_141852;0.156;9.843;-2.849;-0.002;0.002;0.002;
20190908_141852;0.177;9.462;-2.904;-0.000;0.002;0.003;
20190908_141852;0.158;10.118;-3.122;0.001;0.002;0.005;
20190908_141852;0.165;9.855;-2.744;-0.004;0.003;0.006;
20190908_141852;0.223;10.003;-2.787;-0.002;0.001;0.002;
20190908_141852;0.113;9.570;-2.739;0.002;-0.000;0.000;
20190908_141853;0.117;9.941;-2.756;0.002;0.001;0.002;
20190908_141853;0.201;9.598;-2.806;0.004;-0.000;-0.001;
20190908_141853;-0.050;9.474;-2.605;-0.007;0.002;-0.002;
20190908_141853;0.275;9.689;-2.988;-0.003;0.002;0.002;
20190908_141853;0.168;9.562;-2.679;0.006;-0.003;-0.004;
20190908_141853;0.184;9.519;-2.847;-0.003;-0.000;-0.002;
20190908_141853;0.290;9.802;-2.820;-0.002;-0.000;-0.003;
20190908_141853;0.271;9.685;-2.813;0.001;-0.000;-0.001;
20190908_141853;0.239;9.701;-2.804;-0.004;-0.000;-0.001;
20190908_141854;0.318;9.965;-2.794;-0.000;0.002;-0.002;
20190908_141854;0.132;9.474;-2.562;-0.004;-0.002;-0.003;
20190908_141854;0.378;9.653;-2.849;0.004;0.001;-0.002;
20190908_141854;0.419;9.701;-2.835;-0.005;0.001;-0.003;
20190908_141854;0.304;9.555;-2.653;-0.004;0.001;-0.001;
20190908_141854;0.512;9.663;-2.749;-0.002;-0.000;0.000;
20190908_141854;0.572;9.811;-2.926;0.002;0.002;0.002;
20190908_141854;0.330;9.555;-2.586;-0.004;0.001;-0.002;
20190908_141854;0.211;9.634;-2.753;0.001;0.002;0.000;
20190908_141854;0.227;9.553;-2.686;-0.005;-0.000;-0.002;
20190908_141855;0.452;9.677;-2.796;0.003;-0.000;-0.003;
20190908_141855;0.472;9.749;-2.610;-0.005;-0.002;-0.004;
20190908_141855;0.634;9.859;-2.765;0.002;-0.000;-0.004;
20190908_141855;0.350;9.649;-2.808;0.003;-0.003;-0.006;
20190908_141855;0.472;9.701;-2.691;0.002;-0.003;-0.005;
20190908_141855;0.591;9.905;-2.871;0.003;-0.002;-0.007;
20190908_141855;0.196;9.632;-2.765;-0.006;0.001;-0.005;
20190908_141855;0.268;9.527;-2.686;-0.003;-0.002;-0.006;
20190908_141855;0.345;9.747;-2.758;-0.000;0.001;-0.004;
20190908_141856;0.189;9.697;-2.799;-0.006;0.003;-0.003;
20190908_141856;-0.010;9.510;-2.533;-0.000;-0.000;-0.002;
20190908_141856;0.373;9.780;-2.720;0.001;0.001;-0.002;
20190908_141856;0.424;9.869;-2.571;-0.007;0.003;-0.001;
20190908_141856;0.311;9.692;-2.598;-0.000;0.002;-0.001;
20190908_141856;0.323;9.536;-2.715;-0.000;0.003;0.002;
20190908_141856;0.290;9.534;-2.708;-0.007;0.003;0.002;
