Timestamp;Accel_x;Accel_y;Accel_z;Gyro_x;Gyro_y;Gyro_z;
20190925_001525;0.294;9.481;-2.674;0.018;-0.002;0.003;
20190925_001525;0.254;9.474;-2.224;0.002;-0.002;-0.001;
20190925_001525;0.285;9.500;-2.116;-0.000;0.002;0.002;
20190925_001525;0.237;9.567;-2.174;0.004;0.001;-0.000;
20190925_001525;0.242;9.510;-2.052;-0.001;0.001;0.001;
20190925_001525;0.275;9.493;-2.112;-0.000;-0.001;0.001;
20190925_001525;0.239;9.433;-2.025;-0.001;0.001;-0.001;
20190925_001525;0.263;9.414;-2.047;-0.001;-0.001;0.001;
20190925_001526;0.261;9.474;-2.097;0.002;-0.001;-0.001;
20190925_001526;0.218;9.524;-2.033;0.001;0.002;-0.000;
20190925_001526;0.254;9.534;-2.049;-0.000;-0.001;0.001;
20190925_001526;0.275;9.493;-2.045;-0.001;0.001;-0.000;
20190925_001526;0.239;9.459;-2.066;-0.000;-0.001;-0.000;
20190925_001526;0.261;9.455;-2.037;-0.002;-0.001;0.001;
20190925_001526;0.237;9.450;-2.076;0.002;0.001;0.001;
20190925_001526;0.280;9.512;-2.033;0.002;0.001;0.001;
20190925_001526;0.220;9.507;-2.049;-0.001;0.001;0.001;
20190925_001527;0.220;9.503;-2.078;0.001;-0.001;-0.000;
20190925_001527;0.259;9.488;-2.049;-0.001;-0.001;-0.000;
20190925_001527;0.235;9.474;-2.073;0.001;-0.001;0.001;
20190925_001527;0.249;9.498;-2.049;-0.000;-0.001;-0.000;
20190925_001527;0.247;9.474;-2.064;-0.001;0.001;-0.000;
20190925_001527;0.220;9.498;-2.088;0.001;0.002;0.001;
20190925_001527;0.247;9.500;-2.085;0.001;-0.001;0.001;
20190925_001527;0.232;9.486;-2.076;-0.000;-0.001;0.001;
20190925_001527;0.294;9.462;-2.076;-0.000;0.001;0.001;
20190925_001527;0.213;9.493;-2.059;-0.001;-0.001;-0.000;
20190925_001528;0.184;9.524;-2.052;-0.000;-0.001;-0.000;
20190925_001528;0.232;9.503;-2.061;0.001;0.001;0.001;
20190925_001528;0.232;9.483;-2.035;-0.001;0.001;0.001;
20190925_001528;0.244;9.522;-2.088;-0.000;0.001;0.001;
20190925_001528;0.194;9.469;-2.145;0.001;-0.001;-0.000;
20190925_001528;0.204;9.474;-2.083;-0.000;0.001;-0.000;
20190925_001528;0.201;9.491;-2.054;0.001;-0.002;-0.001;
20190925_001528;0.249;9.529;-2.157;0.003;-0.001;0.001;
20190925_001528;0.232;9.500;-2.035;-0.000;-0.002;-0.000;
20190925_001529;0.208;9.510;-2.049;-0.000;-0.001;-0.000;
20190925_001529;0.299;9.488;-2.107;-0.001;-0.001;0.001;
20190925_001529;0.230;9.443;-2.052;-0.000;0.001;-0.000;
20190925_001529;0.266;9.474;-2.102;0.001;0.001;0.001;
20190925_001529;0.244;9.469;-2.102;0.002;0.001;-0.000;
20190925_001529;0.283;9.527;-2.057;-0.000;0.002;0.001;
20190925_001529;0.283;9.534;-2.069;0.001;0.001;0.001;
20190925_001529;0.249;9.503;-2.105;-0.001;0.001;0.001;
20190925_001529;0.242;9.479;-2.042;0.001;-0.001;-0.001;
20190925_001529;0.261;9.457;-2.090;0.001;0.001;0.002;
20190925_001530;0.227;9.471;-2.057;0.002;0.001;0.001;
20190925_001530;0.249;9.531;-2.143;0.002;-0.001;-0.000;
20190925_001530;0.249;9.512;-2.061;0.001;-0.002;-0.000;
20190925_001530;0.271;9.517;-2.064;0.001;-0.001;-0.000;
20190925_001530;0.249;9.483;-2.090;0.001;0.001;0.001;
20190925_001530;0.187;9.450;-2.061;0.002;-0.001;-0.000;
20190925_001530;0.261;9.488;-2.035;0.001;-0.001;0.001;
20190925_001530;0.230;9.562;-2.093;0.002;-0.002;-0.002;
20190925_001530;0.259;9.493;-2.069;0.002;0.001;-0.001;
20190925_001531;0.206;9.488;-2.047;-0.002;0.001;-0.001;
20190925_001531;0.273;9.464;-2.083;0.001;-0.001;0.001;
20190925_001531;0.230;9.483;-2.064;0.002;-0.002;-0.002;
20190925_001531;0.275;9.462;-2.057;-0.002;0.002;0.002;
20190925_001531;0.213;9.483;-2.088;0.001;0.001;-0.001;
20190925_001531;0.261;9.512;-2.054;0.001;-0.002;-0.002;
20190925_001531;0.263;9.517;-2.112;0.001;0.001;-0.001;
20190925_001531;0.254;9.491;-2.066;-0.002;-0.001;-0.001;
20190925_001531;0.287;9.462;-2.107;0.001;0.001;-0.001;
20190925_001532;0.251;9.476;-2.064;0.001;0.001;0.002;
20190925_001532;0.232;9.483;-2.061;0.002;-0.001;-0.001;
20190925_001532;0.275;9.522;-2.133;0.002;0.001;0.001;
20190925_001532;0.237;9.515;-2.061;-0.000;0.002;0.001;
20190925_001532;0.268;9.536;-2.095;-0.002;0.001;-0.001;
20190925_001532;0.220;9.505;-2.109;0.003;0.001;-0.002;
20190925_001532;0.218;9.479;-2.057;-0.000;-0.002;-0.001;
20190925_001532;0.261;9.443;-2.085;-0.000;0.002;0.001;
20190925_001532;0.213;9.457;-2.069;0.001;0.001;0.001;
20190925_001533;0.254;9.550;-2.083;0.001;-0.001;0.001;
20190925_001533;0.218;9.541;-2.025;0.001;0.001;0.001;
20190925_001533;0.223;9.507;-2.040;-0.002;-0.001;-0.001;
20190925_001533;0.278;9.476;-2.138;-0.002;0.001;0.001;
20190925_001533;0.251;9.452;-2.047;-0.003;-0.001;-0.002;
20190925_001533;0.256;9.445;-2.097;0.001;0.002;0.001;
20190925_001533;0.235;9.486;-2.040;-0.002;0.001;-0.001;
20190925_001533;0.278;9.524;-2.124;0.003;-0.001;-0.001;
20190925_001533;0.283;9.567;-2.210;0.001;0.003;0.002;
20190925_001534;0.259;9.510;-2.021;-0.003;0.001;-0.001;
20190925_001534;0.237;9.438;-2.081;-0.000;0.003;-0.001;
20190925_001534;0.192;9.495;-2.121;0.004;-0.001;-0.001;
20190925_001534;0.256;9.510;-2.116;-0.000;-0.001;0.001;
20190925_001534;0.235;9.459;-2.025;-0.002;0.001;0.001;
20190925_001534;0.251;9.522;-2.059;-0.000;0.001;-0.001;
20190925_001534;0.302;9.515;-2.148;0.001;0.001;0.001;
20190925_001534;0.254;9.498;-2.083;-0.005;0.002;0.003;
20190925_001534;0.271;9.440;-2.097;0.001;0.001;-0.001;
20190925_001534;0.187;9.476;-2.076;-0.000;0.001;-0.001;
20190925_001535;0.227;9.471;-2.107;-0.000;0.001;0.001;
20190925_001535;0.244;9.512;-2.049;-0.000;-0.001;0.001;
20190925_001535;0.235;9.522;-2.073;0.002;0.001;0.002;
20190925_001535;0.218;9.495;-2.128;-0.001;0.002;0.001;
20190925_001535;0.242;9.515;-2.088;0.001;0.001;0.001;
20190925_001535;0.263;9.479;-2.088;0.001;-0.001;-0.000;
20190925_001535;0.242;9.452;-2.040;0.001;-0.002;-0.001;
20190925_001535;0.227;9.495;-2.066;0.002;0.001;-0.001;
20190925_001535;0.251;9.543;-2.059;-0.001;-0.001;-0.001;
20190925_001536;0.268;9.515;-2.116;0.001;0.001;0.001;
20190925_001536;0.237;9.493;-2.105;-0.001;0.001;0.001;
20190925_001536;0.247;9.483;-2.095;-0.000;0.001;-0.000;
20190925_001536;0.280;9.450;-2.097;-0.001;0.002;0.001;
20190925_001536;0.215;9.500;-2.100;-0.001;-0.002;-0.000;
20190925_001536;0.208;9.507;-2.085;-0.000;-0.002;-0.000;
20190925_001536;0.211;9.493;-2.116;0.003;0.001;0.001;
20190925_001536;0.237;9.483;-2.045;0.001;0.001;-0.000;
20190925_001536;0.278;9.491;-2.076;-0.001;-0.001;0.001;
20190925_001537;0.218;9.452;-2.114;0.001;0.001;-0.000;
20190925_001537;0.230;9.481;-2.016;-0.002;0.001;-0.000;
20190925_001537;0.275;9.507;-2.100;0.001;-0.001;-0.000;
20190925_001537;0.268;9.498;-2.102;-0.001;0.002;0.001;
20190925_001537;0.254;9.515;-2.076;-0.000;0.001;-0.000;
20190925_001537;0.223;9.459;-2.150;-0.000;0.001;-0.000;
20190925_001537;0.223;9.495;-2.090;0.001;0.001;0.001;
20190925_001537;0.230;9.495;-1.987;-0.001;0.001;0.001;
20190925_001537;0.268;9.481;-2.126;-0.000;-0.001;0.001;
20190925_001537;0.244;9.534;-2.028;0.002;-0.001;-0.000;
20190925_001538;0.218;9.467;-2.121;-0.000;-0.001;-0.000;
20190925_001538;0.182;9.491;-2.076;-0.001;-0.001;-0.000;
20190925_001538;0.247;9.488;-2.052;-0.001;-0.001;0.001;
20190925_001538;0.271;9.498;-2.152;0.002;0.001;0.002;
20190925_001538;0.184;9.486;-2.114;-0.000;-0.001;0.001;
20190925_001538;0.239;9.498;-2.006;-0.000;0.001;-0.000;
20190925_001538;0.285;9.500;-2.114;0.001;0.001;0.001;
20190925_001538;0.223;9.486;-2.105;0.001;0.002;0.003;
20190925_001538;0.395;9.462;-2.054;-0.011;0.002;0.004;
20190925_001539;0.266;9.457;-2.093;0.001;0.001;0.001;
20190925_001539;0.254;9.483;-2.035;-0.001;-0.001;0.001;
20190925_001539;0.235;9.476;-2.054;0.001;0.001;-0.000;
20190925_001539;0.199;9.522;-2.083;0.001;0.001;-0.000;
20190925_001539;0.256;9.522;-2.083;-0.001;-0.001;-0.000;
20190925_001539;0.254;9.469;-2.061;-0.000;-0.001;-0.000;
20190925_001539;0.244;9.524;-2.112;0.001;0.001;-0.000;
20190925_001539;0.247;9.500;-2.090;-0.000;-0.002;0.001;
20190925_001539;0.256;9.488;-2.071;0.001;-0.001;-0.000;
20190925_001540;0.247;9.474;-2.100;0.001;0.000;0.000;
20190925_001540;0.208;9.522;-2.112;0.001;-0.001;-0.001;
20190925_001540;0.244;9.515;-2.059;0.003;0.000;0.000;
20190925_001540;0.239;9.519;-2.119;-0.000;0.000;-0.001;
20190925_001540;0.220;9.498;-2.121;0.001;-0.001;-0.001;
20190925_001540;0.263;9.443;-2.100;-0.000;-0.001;0.000;
20190925_001540;0.237;9.467;-2.021;-0.000;-0.001;-0.001;
20190925_001540;0.237;9.476;-2.052;-0.000;-0.001;0.000;
20190925_001540;0.239;9.560;-2.042;-0.001;-0.001;0.000;
20190925_001540;0.251;9.507;-2.157;-0.000;0.000;0.000;
20190925_001541;0.249;9.491;-2.085;-0.001;0.000;-0.001;
20190925_001541;0.247;9.433;-2.030;-0.001;-0.001;-0.001;
20190925_001541;0.225;9.459;-2.037;0.001;0.000;-0.001;
20190925_001541;0.235;9.500;-2.114;-0.000;-0.001;0.000;
20190925_001541;0.249;9.529;-2.102;0.001;0.001;-0.001;
20190925_001541;0.247;9.524;-2.076;-0.000;-0.001;-0.001;
20190925_001541;0.220;9.515;-2.078;0.002;-0.001;-0.001;
20190925_001541;0.227;9.517;-2.126;0.001;0.000;0.000;
20190925_001541;0.299;9.471;-2.021;-0.001;0.000;0.002;
20190925_001542;0.266;9.481;-2.109;-0.001;0.000;0.000;
20190925_001542;0.215;9.471;-2.116;0.002;-0.001;0.000;
20190925_001542;0.218;9.486;-1.980;-0.000;-0.001;-0.001;
20190925_001542;0.273;9.507;-2.028;-0.000;0.000;-0.001;
20190925_001542;0.254;9.519;-2.023;0.001;-0.002;-0.002;
20190925_001542;0.247;9.519;-2.143;0.001;0.000;-0.002;
20190925_001542;0.208;9.438;-2.088;-0.000;0.000;-0.001;
20190925_001542;0.251;9.455;-2.097;-0.001;-0.001;-0.001;
20190925_001542;0.287;9.495;-2.128;0.001;-0.001;0.000;
20190925_001543;0.271;9.522;-2.047;-0.000;0.000;-0.001;
20190925_001543;0.259;9.507;-2.150;0.001;0.000;0.000;
20190925_001543;0.254;9.469;-2.061;0.002;-0.001;-0.001;
20190925_001543;0.249;9.464;-2.042;-0.000;0.000;0.000;
20190925_001543;0.225;9.440;-2.023;0.001;0.000;-0.001;
20190925_001543;0.271;9.481;-2.040;0.001;-0.001;0.000;
20190925_001543;0.239;9.517;-2.112;0.002;-0.001;0.002;
20190925_001543;0.192;9.562;-2.162;-0.001;-0.001;-0.001;
20190925_001543;0.302;9.498;-2.128;-0.001;-0.001;-0.001;
20190925_001543;0.294;9.431;-2.071;0.001;0.000;0.000;
20190925_001544;0.268;9.426;-2.033;0.001;-0.001;-0.001;
20190925_001544;0.215;9.459;-2.057;-0.000;0.000;0.002;
20190925_001544;0.220;9.519;-2.090;-0.000;0.000;-0.002;
20190925_001544;0.280;9.503;-2.014;0.001;-0.001;0.000;
20190925_001544;0.249;9.505;-2.004;-0.000;-0.001;0.000;
20190925_001544;0.266;9.531;-2.131;-0.000;0.000;0.000;
20190925_001544;0.230;9.471;-2.112;-0.001;-0.001;-0.001;
20190925_001544;0.213;9.474;-2.057;0.001;-0.002;-0.002;
20190925_001544;0.192;9.500;-2.083;-0.000;0.000;-0.003;
20190925_001545;0.206;9.483;-2.107;0.001;-0.000;-0.000;
20190925_001545;0.225;9.512;-2.054;0.001;-0.000;-0.000;
20190925_001545;0.206;9.486;-2.042;-0.001;0.001;0.001;
20190925_001545;0.194;9.498;-2.155;0.004;0.003;0.001;
20190925_001545;0.244;9.448;-2.198;0.018;-0.003;-0.003;
20190925_001545;0.249;9.471;-2.126;-0.001;-0.000;-0.000;
20190925_001545;0.294;9.455;-2.047;0.002;0.001;0.001;
20190925_001545;0.201;9.517;-2.059;0.001;-0.002;-0.000;
20190925_001545;0.275;9.486;-2.042;-0.000;-0.000;-0.000;
20190925_001545;0.263;9.505;-2.133;0.001;-0.000;-0.000;
20190925_001546;0.294;9.503;-2.085;0.002;0.001;-0.000;
20190925_001546;0.225;9.462;-2.054;0.002;0.003;0.003;
20190925_001546;0.283;9.471;-2.049;-0.000;-0.000;0.001;
20190925_001546;0.285;9.474;-2.052;-0.002;0.001;0.001;
20190925_001546;0.201;9.507;-2.160;0.002;-0.000;-0.000;
20190925_001546;0.268;9.486;-2.145;-0.000;-0.000;-0.001;
20190925_001546;0.266;9.462;-2.035;-0.000;-0.000;-0.000;
20190925_001546;0.259;9.483;-2.109;0.002;-0.000;-0.000;
20190925_001546;0.232;9.479;-2.064;0.001;-0.000;-0.000;
20190925_001547;0.256;9.505;-2.114;0.001;-0.000;-0.000;
20190925_001547;0.266;9.495;-2.090;-0.000;-0.000;-0.000;
20190925_001547;0.266;9.512;-2.025;-0.000;-0.000;0.001;
20190925_001547;0.215;9.476;-2.047;-0.000;-0.000;0.001;
20190925_001547;0.268;9.483;-2.078;-0.000;-0.002;-0.000;
20190925_001547;0.251;9.491;-2.119;0.002;-0.002;-0.000;
20190925_001547;0.249;9.495;-2.112;0.001;0.001;0.001;
20190925_001547;0.223;9.481;-1.987;-0.000;0.001;-0.001;
20190925_001547;0.223;9.474;-2.059;-0.001;-0.000;0.002;
20190925_001548;0.247;9.483;-2.033;-0.001;0.002;0.002;
20190925_001548;0.223;9.450;-2.081;-0.000;0.001;-0.000;
20190925_001548;0.259;9.462;-2.148;-0.000;0.002;0.001;
20190925_001548;0.268;9.505;-2.076;-0.002;0.002;0.002;
20190925_001548;0.237;9.536;-2.045;-0.000;0.001;0.001;
20190925_001548;0.278;9.500;-2.030;-0.000;0.002;0.001;
20190925_001548;0.237;9.510;-2.169;0.001;-0.000;-0.000;
20190925_001548;0.225;9.455;-2.088;-0.001;-0.000;-0.000;
20190925_001548;0.280;9.445;-2.128;0.004;-0.002;-0.001;
20190925_001548;0.256;9.450;-2.145;0.002;0.001;-0.000;
20190925_001549;0.261;9.488;-2.006;-0.000;-0.002;0.001;
20190925_001549;0.261;9.493;-2.093;-0.001;-0.000;0.002;
20190925_001549;0.237;9.493;-2.083;-0.000;-0.000;0.001;
20190925_001549;0.259;9.479;-2.095;0.001;-0.000;0.001;
20190925_001549;0.211;9.455;-2.045;-0.001;0.001;0.001;
20190925_001549;0.278;9.483;-2.054;0.002;-0.000;-0.001;
20190925_001549;0.256;9.505;-2.047;0.001;-0.000;0.002;
20190925_001549;0.230;9.522;-2.150;0.002;0.001;-0.001;
20190925_001549;0.285;9.515;-2.081;-0.001;-0.000;-0.000;
20190925_001550;0.311;9.479;-2.138;0.001;-0.000;-0.001;
20190925_001550;0.254;9.467;-2.040;-0.003;0.001;0.000;
20190925_001550;0.194;9.440;-2.037;-0.000;0.001;0.000;
20190925_001550;0.251;9.488;-2.112;0.003;-0.000;-0.001;
20190925_001550;0.292;9.517;-2.126;-0.001;-0.000;0.000;
20190925_001550;0.239;9.507;-2.128;-0.000;-0.000;0.000;
20190925_001550;0.206;9.450;-2.009;-0.000;-0.000;-0.002;
20190925_001550;0.271;9.459;-2.035;-0.000;-0.000;-0.001;
20190925_001550;0.242;9.464;-2.160;0.004;-0.001;-0.001;
20190925_001551;0.208;9.500;-2.152;0.004;-0.003;-0.003;
20190925_001551;0.242;9.527;-2.035;0.003;-0.000;-0.001;
20190925_001551;0.275;9.493;-2.021;0.003;-0.000;0.000;
20190925_001551;0.242;9.479;-2.035;-0.003;0.001;0.001;
20190925_001551;0.235;9.474;-2.116;-0.000;-0.000;0.000;
20190925_001551;0.306;9.459;-2.148;0.001;0.002;0.001;
20190925_001551;0.225;9.527;-2.145;-0.000;-0.000;-0.002;
20190925_001551;0.232;9.462;-2.061;0.002;-0.001;-0.002;
20190925_001551;0.225;9.524;-1.987;-0.000;0.001;0.000;
20190925_001552;0.230;9.531;-2.059;-0.000;-0.001;-0.002;
20190925_001552;0.237;9.493;-2.109;0.001;-0.000;-0.002;
20190925_001552;0.287;9.483;-2.148;-0.000;0.002;-0.001;
20190925_001552;0.259;9.493;-2.157;0.002;-0.000;0.000;
20190925_001552;0.227;9.467;-2.081;-0.001;0.001;0.000;
20190925_001552;0.266;9.488;-2.095;-0.000;-0.000;-0.001;
20190925_001552;0.263;9.471;-2.035;-0.000;0.001;0.000;
20190925_001552;0.232;9.522;-2.109;0.001;-0.000;-0.001;
20190925_001552;0.261;9.483;-2.085;-0.000;-0.001;-0.001;
20190925_001553;0.268;9.452;-2.083;0.001;-0.001;-0.001;
20190925_001553;0.242;9.452;-2.004;0.001;0.002;-0.001;
20190925_001553;0.206;9.512;-2.076;0.001;-0.000;-0.001;
20190925_001553;0.225;9.517;-2.100;0.001;0.001;0.000;
20190925_001553;0.251;9.529;-2.088;-0.001;0.001;0.000;
20190925_001553;0.256;9.455;-2.114;-0.002;0.001;0.000;
20190925_001553;0.251;9.450;-2.162;0.001;0.001;-0.001;
20190925_001553;0.251;9.443;-2.033;-0.000;0.001;0.001;
20190925_001553;0.237;9.512;-2.035;0.002;-0.000;-0.001;
20190925_001553;0.263;9.538;-2.078;-0.001;0.002;0.000;
20190925_001554;0.244;9.505;-2.119;0.001;-0.000;-0.001;
20190925_001554;0.242;9.498;-2.102;-0.000;-0.000;-0.001;
20190925_001554;0.254;9.426;-2.081;0.001;-0.000;-0.002;
20190925_001554;0.254;9.476;-2.066;0.003;0.001;0.001;
20190925_001554;0.254;9.527;-2.037;-0.000;-0.000;-0.001;
20190925_001554;0.235;9.495;-2.025;-0.001;-0.000;-0.001;
20190925_001554;0.294;9.515;-2.061;-0.002;-0.000;0.000;
20190925_001554;0.247;9.452;-2.083;-0.001;-0.000;0.000;
20190925_001554;0.194;9.438;-2.083;-0.000;0.001;-0.001;
20190925_001555;0.220;9.479;-2.066;0.002;-0.002;-0.000;
20190925_001555;0.230;9.493;-2.076;-0.002;-0.001;0.001;
20190925_001555;0.242;9.548;-2.157;0.002;-0.001;0.001;
20190925_001555;0.227;9.512;-2.097;-0.000;0.001;0.001;
20190925_001555;0.237;9.486;-2.059;-0.002;-0.001;0.001;
20190925_001555;0.227;9.459;-2.112;-0.002;0.001;-0.000;
20190925_001555;0.237;9.448;-2.105;0.001;0.002;-0.000;
20190925_001555;0.225;9.428;-1.978;-0.000;0.001;0.001;
20190925_001555;0.302;9.510;-2.119;0.004;0.001;0.002;
20190925_001556;0.247;9.510;-2.102;-0.000;-0.001;-0.000;
20190925_001556;0.218;9.531;-2.136;-0.002;-0.001;-0.000;
20190925_001556;0.220;9.438;-2.009;-0.002;-0.001;-0.002;
20190925_001556;0.244;9.459;-2.073;-0.000;0.001;0.001;
20190925_001556;0.213;9.474;-2.033;0.001;0.001;-0.000;
20190925_001556;0.297;9.488;-2.045;-0.000;-0.002;-0.002;
20190925_001556;0.165;9.474;-2.095;0.002;-0.001;0.001;
20190925_001556;0.165;9.534;-2.193;0.005;-0.002;-0.002;
20190925_001556;0.244;9.491;-2.088;0.003;0.002;-0.000;
20190925_001557;0.261;9.459;-2.011;-0.003;-0.001;-0.000;
20190925_001557;0.271;9.495;-2.105;0.001;0.001;-0.000;
20190925_001557;0.247;9.469;-2.061;0.002;-0.001;-0.000;
20190925_001557;0.261;9.541;-2.136;0.002;-0.001;-0.000;
20190925_001557;0.237;9.524;-2.128;-0.002;-0.001;-0.000;
20190925_001557;0.227;9.483;-2.037;-0.000;0.001;-0.000;
20190925_001557;0.259;9.488;-2.061;0.001;-0.001;-0.000;
20190925_001557;0.259;9.481;-2.116;0.001;-0.001;-0.000;
20190925_001557;0.294;9.448;-2.047;-0.000;-0.001;0.001;
20190925_001557;0.235;9.462;-2.071;0.001;-0.001;-0.000;
20190925_001558;0.227;9.527;-2.081;-0.000;0.001;0.001;
20190925_001558;0.254;9.519;-2.121;-0.000;0.001;0.001;
20190925_001558;0.247;9.445;-2.054;0.001;-0.003;-0.000;
20190925_001558;0.254;9.462;-2.100;-0.000;0.001;-0.000;
20190925_001558;0.266;9.467;-2.095;0.001;-0.001;-0.000;
20190925_001558;0.239;9.469;-2.057;-0.000;0.001;0.001;
20190925_001558;0.261;9.510;-2.116;-0.000;0.001;0.001;
20190925_001558;0.266;9.531;-2.071;-0.000;0.001;0.001;
20190925_001558;0.232;9.476;-2.088;0.001;0.002;0.001;
20190925_001559;0.254;9.469;-2.133;-0.000;-0.001;-0.000;
20190925_001559;0.235;9.488;-2.054;-0.002;0.001;-0.000;
20190925_001559;0.230;9.448;-2.081;-0.002;-0.001;0.001;
20190925_001559;0.268;9.486;-2.100;0.001;-0.001;0.001;
20190925_001559;0.244;9.493;-1.968;-0.002;-0.001;0.001;
20190925_001559;0.251;9.531;-2.085;-0.002;-0.001;0.001;
20190925_001559;0.271;9.495;-2.128;-0.002;-0.001;0.001;
20190925_001559;0.275;9.433;-2.081;-0.000;-0.001;0.001;
20190925_001559;0.263;9.450;-2.078;0.001;0.001;-0.000;
20190925_001600;0.275;9.448;-2.049;-0.000;0.001;-0.000;
20190925_001600;0.239;9.515;-2.119;0.001;0.001;0.002;
20190925_001600;0.223;9.519;-2.097;0.001;0.001;0.000;
20190925_001600;0.215;9.495;-2.066;-0.001;0.001;-0.001;
20190925_001600;0.235;9.476;-2.052;-0.000;-0.001;-0.001;
20190925_001600;0.237;9.500;-2.109;0.002;0.001;0.000;
20190925_001600;0.263;9.469;-2.116;0.001;0.001;0.000;
20190925_001600;0.182;9.481;-2.054;0.002;0.001;0.000;
20190925_001600;0.268;9.534;-2.066;0.001;-0.000;-0.001;
20190925_001600;0.237;9.522;-2.085;0.001;0.001;0.000;
20190925_001601;0.218;9.488;-2.088;-0.001;-0.000;-0.001;
20190925_001601;0.271;9.459;-2.119;-0.000;-0.000;0.000;
20190925_001601;0.244;9.445;-2.109;0.001;-0.000;-0.001;
20190925_001601;0.263;9.481;-2.071;-0.000;-0.000;0.002;
20190925_001601;0.259;9.486;-2.100;0.001;0.002;0.000;
20190925_001601;0.213;9.491;-2.085;-0.000;-0.000;-0.001;
20190925_001601;0.278;9.503;-2.071;-0.000;0.002;0.000;
20190925_001601;0.249;9.455;-2.095;-0.001;-0.000;0.000;
20190925_001601;0.237;9.503;-2.107;-0.001;-0.001;-0.001;
20190925_001602;0.261;9.436;-2.085;0.002;-0.000;0.000;
20190925_001602;0.263;9.486;-2.081;0.001;-0.000;-0.001;
20190925_001602;0.225;9.548;-2.054;0.002;-0.001;0.000;
20190925_001602;0.283;9.534;-2.083;0.001;0.001;-0.001;
20190925_001602;0.184;9.462;-2.073;-0.001;-0.000;0.000;
20190925_001602;0.237;9.471;-2.102;-0.000;0.001;0.000;
20190925_001602;0.290;9.455;-2.088;0.001;-0.000;-0.001;
20190925_001602;0.215;9.498;-2.049;-0.000;0.001;0.000;
20190925_001602;0.249;9.491;-2.133;-0.001;0.001;0.000;
20190925_001603;0.287;9.505;-2.066;-0.001;0.001;0.000;
20190925_001603;0.218;9.445;-2.078;-0.001;0.002;-0.001;
20190925_001603;0.280;9.474;-2.119;0.002;0.001;0.000;
20190925_001603;0.218;9.448;-2.069;-0.000;0.001;0.000;
20190925_001603;0.285;9.543;-2.071;-0.000;-0.000;-0.001;
20190925_001603;0.280;9.498;-2.093;-0.000;-0.000;-0.001;
20190925_001603;0.237;9.471;-2.097;0.002;0.001;-0.001;
20190925_001603;0.218;9.488;-2.107;-0.001;0.002;0.000;
20190925_001603;0.292;9.529;-2.100;0.001;0.002;0.000;
20190925_001604;0.247;9.462;-2.114;0.001;-0.000;-0.001;
20190925_001604;0.256;9.517;-2.090;0.001;-0.000;-0.001;
20190925_001604;0.220;9.536;-2.061;-0.000;-0.000;-0.002;
20190925_001604;0.196;9.505;-2.059;-0.000;-0.000;-0.001;
20190925_001604;0.199;9.493;-2.102;-0.000;-0.000;-0.001;
20190925_001604;0.215;9.495;-2.126;-0.000;-0.000;-0.002;
20190925_001604;0.215;9.510;-2.109;0.001;-0.000;-0.001;
20190925_001604;0.261;9.517;-2.143;0.002;-0.000;0.000;
20190925_001604;0.294;9.500;-2.140;0.002;-0.000;-0.001;
20190925_001604;0.247;9.452;-2.076;0.001;0.001;0.000;
20190925_001605;0.285;9.495;-2.061;-0.000;-0.000;-0.001;
20190925_001605;0.249;9.512;-2.061;-0.000;-0.000;0.000;
20190925_001605;0.263;9.503;-2.052;0.001;-0.000;0.000;
20190925_001605;0.244;9.476;-2.124;0.001;0.001;0.000;
20190925_001605;0.211;9.450;-2.088;0.001;0.001;-0.002;
20190925_001605;0.247;9.486;-2.033;-0.002;0.001;-0.001;
20190925_001605;0.227;9.493;-2.136;0.001;0.001;0.002;
20190925_001605;0.208;9.493;-2.140;0.001;-0.000;-0.001;
20190925_001605;0.254;9.515;-2.052;-0.000;-0.000;-0.001;
20190925_001605;0.235;9.498;-2.102;-0.002;-0.000;0.000;
20190925_001606;0.271;9.474;-2.167;0.001;-0.002;-0.002;
20190925_001606;0.249;9.483;-2.035;-0.002;-0.000;0.000;
20190925_001606;0.278;9.455;-2.033;-0.000;-0.002;0.000;
20190925_001606;0.333;9.522;-2.126;0.002;0.001;0.000;
20190925_001606;0.280;9.471;-2.140;0.001;0.001;-0.001;
20190925_001606;0.211;9.510;-2.145;0.001;0.001;-0.001;
20190925_001606;0.290;9.479;-2.081;-0.000;0.001;-0.001;
20190925_001606;0.287;9.491;-2.073;-0.002;-0.000;-0.001;
20190925_001606;0.230;9.481;-2.066;-0.000;0.002;-0.001;
20190925_001607;0.196;9.464;-2.114;0.001;-0.000;0.000;
20190925_001607;0.237;9.464;-2.040;-0.002;0.002;-0.001;
20190925_001607;0.273;9.462;-2.138;0.001;0.001;-0.001;
20190925_001607;0.232;9.467;-2.066;-0.002;-0.000;-0.001;
20190925_001607;0.263;9.457;-2.071;-0.000;-0.000;0.000;
20190925_001607;0.263;9.510;-2.047;0.001;-0.000;-0.001;
20190925_001607;0.242;9.474;-2.097;-0.000;-0.002;0.000;
20190925_001607;0.261;9.481;-2.081;-0.000;-0.000;-0.001;
20190925_001607;0.244;9.467;-2.057;-0.000;0.001;-0.002;
20190925_001608;0.263;9.495;-2.042;0.001;0.002;-0.001;
20190925_001608;0.251;9.498;-2.073;0.001;-0.000;-0.002;
20190925_001608;0.263;9.483;-2.083;-0.002;-0.000;0.000;
20190925_001608;0.235;9.488;-2.095;-0.000;-0.000;-0.001;
20190925_001608;0.218;9.476;-2.071;-0.000;-0.000;0.000;
20190925_001608;0.211;9.462;-2.116;0.001;-0.000;0.000;
20190925_001608;0.263;9.517;-2.095;-0.000;-0.002;-0.001;
20190925_001608;0.280;9.553;-2.078;-0.000;0.001;-0.001;
20190925_001608;0.194;9.517;-2.107;-0.000;-0.002;-0.001;
20190925_001609;0.211;9.467;-2.140;-0.002;-0.000;0.000;
20190925_001609;0.263;9.426;-2.037;-0.000;0.001;-0.001;
20190925_001609;0.273;9.431;-2.030;0.001;-0.000;0.000;
20190925_001609;0.242;9.572;-1.992;0.001;0.001;-0.001;
20190925_001609;0.273;9.510;-2.116;0.002;-0.000;0.000;
20190925_001609;0.235;9.546;-2.133;0.002;-0.000;0.000;
20190925_001609;0.223;9.459;-2.078;-0.002;0.001;-0.001;
20190925_001609;0.232;9.438;-2.140;0.001;0.001;-0.001;
20190925_001609;0.220;9.450;-2.011;-0.000;-0.000;-0.001;
20190925_001610;0.247;9.471;-2.049;0.001;0.001;-0.001;
20190925_001610;0.242;9.517;-2.112;0.002;0.001;0.000;
20190925_001610;0.213;9.527;-2.093;-0.002;-0.002;-0.001;
20190925_001610;0.311;9.481;-2.093;0.001;0.002;0.001;
20190925_001610;0.309;9.416;-2.028;-0.006;-0.001;-0.002;
20190925_001610;0.294;9.448;-2.184;-0.002;-0.000;0.002;
20190925_001610;0.235;9.448;-2.184;-0.000;-0.000;0.001;
20190925_001610;0.218;9.476;-2.100;0.001;0.001;-0.000;
20190925_001610;0.292;9.543;-2.011;-0.002;0.001;-0.000;
20190925_001610;0.225;9.498;-2.131;-0.000;-0.000;0.001;
20190925_001611;0.268;9.476;-2.102;-0.001;0.001;0.001;
20190925_001611;0.204;9.448;-2.081;-0.001;0.001;-0.000;
20190925_001611;0.237;9.452;-2.097;0.001;-0.000;-0.000;
20190925_001611;0.247;9.495;-2.040;-0.000;-0.000;-0.000;
20190925_001611;0.235;9.567;-2.114;0.001;-0.000;0.001;
20190925_001611;0.223;9.524;-2.164;-0.000;0.001;0.001;
20190925_001611;0.259;9.479;-2.095;-0.002;0.001;-0.000;
20190925_001611;0.283;9.459;-2.100;-0.001;-0.000;0.001;
20190925_001611;0.254;9.476;-2.078;-0.001;-0.000;-0.000;
20190925_001612;0.275;9.448;-2.040;0.001;-0.000;0.001;
20190925_001612;0.271;9.481;-2.064;-0.000;0.002;-0.000;
20190925_001612;0.244;9.486;-2.093;-0.000;0.001;-0.000;
20190925_001612;0.232;9.546;-2.126;-0.000;0.002;-0.000;
20190925_001612;0.220;9.467;-2.083;0.002;0.002;0.001;
20190925_001612;0.247;9.459;-2.136;-0.001;-0.000;-0.000;
20190925_001612;0.124;9.469;-2.035;-0.001;-0.000;0.001;
20190925_001612;0.280;9.476;-1.990;-0.000;-0.000;0.002;
20190925_001612;0.239;9.493;-2.066;0.002;-0.000;0.001;
20190925_001612;0.249;9.522;-2.069;-0.000;-0.000;0.001;
20190925_001613;0.220;9.500;-2.102;-0.000;-0.000;-0.000;
20190925_001613;0.290;9.488;-2.116;-0.000;-0.000;0.001;
20190925_001613;0.299;9.474;-2.047;-0.000;0.001;0.001;
20190925_001613;0.254;9.491;-2.090;0.003;0.001;-0.000;
20190925_001613;0.249;9.486;-2.035;-0.000;-0.000;-0.000;
20190925_001613;0.247;9.503;-2.066;-0.001;-0.000;0.001;
20190925_001613;0.249;9.467;-2.128;0.001;0.001;-0.000;
20190925_001613;0.249;9.498;-2.083;-0.000;-0.000;-0.000;
20190925_001613;0.244;9.464;-2.095;-0.000;-0.000;0.001;
20190925_001614;0.235;9.452;-2.028;-0.001;0.001;0.001;
20190925_001614;0.242;9.493;-2.071;-0.000;0.001;-0.000;
20190925_001614;0.297;9.512;-2.097;-0.000;0.001;0.001;
20190925_001614;0.266;9.515;-2.109;0.001;0.001;-0.000;
20190925_001614;0.242;9.503;-2.126;0.001;0.001;-0.000;
20190925_001614;0.223;9.476;-2.095;-0.001;-0.000;0.001;
20190925_001614;0.249;9.455;-2.121;-0.000;0.001;-0.000;
20190925_001614;0.239;9.474;-2.014;-0.002;-0.000;-0.002;
20190925_001614;0.247;9.493;-2.112;-0.000;0.001;-0.000;
20190925_001615;0.249;9.541;-2.100;0.002;0.002;-0.000;
20190925_001615;0.259;9.483;-1.994;-0.001;-0.003;-0.000;
20190925_001615;0.309;9.479;-2.071;-0.002;-0.002;0.001;
20190925_001615;0.266;9.424;-2.102;0.004;0.002;0.001;
20190925_001615;0.285;9.459;-2.114;-0.000;-0.000;-0.000;
20190925_001615;0.232;9.479;-2.143;0.001;0.002;0.001;
20190925_001615;0.259;9.531;-2.042;0.001;-0.000;0.001;
20190925_001615;0.271;9.550;-2.126;0.002;0.002;0.002;
20190925_001615;0.249;9.531;-2.195;0.002;0.002;0.001;
20190925_001615;0.223;9.462;-1.980;-0.001;0.001;-0.000;
20190925_001616;0.165;9.479;-2.035;-0.004;-0.002;-0.001;
20190925_001616;0.194;9.428;-2.057;-0.003;-0.000;-0.001;
20190925_001616;0.201;9.414;-1.980;-0.003;-0.002;-0.004;
20190925_001616;0.196;9.519;-2.112;0.001;-0.003;-0.000;
20190925_001616;0.249;9.512;-2.136;0.002;-0.002;-0.001;
20190925_001616;0.175;9.510;-2.025;-0.000;0.001;-0.003;
20190925_001616;0.215;9.527;-2.049;0.001;0.001;0.001;
20190925_001616;0.283;9.428;-2.025;-0.000;0.001;0.001;
20190925_001616;0.287;9.448;-2.121;-0.000;0.001;-0.000;
20190925_001617;0.204;9.457;-2.121;0.001;-0.000;0.001;
20190925_001617;0.232;9.529;-2.057;0.001;-0.000;-0.000;
20190925_001617;0.261;9.548;-2.105;0.002;0.003;0.001;
20190925_001617;0.266;9.543;-2.167;-0.000;0.001;0.002;
20190925_001617;0.290;9.450;-2.040;-0.000;0.001;0.001;
20190925_001617;0.261;9.414;-2.059;0.001;0.002;0.002;
20190925_001617;0.242;9.479;-2.131;0.003;0.001;-0.000;
20190925_001617;0.235;9.515;-2.030;-0.000;-0.000;-0.000;
20190925_001617;0.263;9.546;-2.112;0.001;-0.000;-0.000;
20190925_001617;0.280;9.531;-2.093;0.002;-0.000;0.001;
20190925_001618;0.251;9.471;-2.124;-0.002;-0.000;0.001;
20190925_001618;0.235;9.395;-2.033;-0.000;0.001;0.001;
20190925_001618;0.249;9.431;-2.152;0.002;0.001;0.001;
20190925_001618;0.225;9.464;-2.016;0.002;0.001;-0.000;
20190925_001618;0.242;9.538;-2.052;0.001;-0.002;0.001;
20190925_001618;0.235;9.555;-2.066;-0.000;-0.000;0.001;
20190925_001618;0.235;9.488;-2.083;0.001;0.001;0.001;
20190925_001618;0.306;9.457;-2.119;-0.001;-0.002;-0.000;
20190925_001618;0.259;9.416;-2.136;0.001;-0.000;0.002;
20190925_001619;0.278;9.491;-2.030;0.003;0.001;-0.000;
20190925_001619;0.266;9.483;-2.083;-0.001;0.001;0.001;
20190925_001619;0.285;9.546;-2.112;-0.000;0.001;0.001;
20190925_001619;0.230;9.510;-2.049;0.001;0.001;-0.000;
20190925_001619;0.254;9.536;-2.035;-0.000;0.001;-0.000;
20190925_001619;0.223;9.481;-2.112;-0.000;0.001;-0.000;
20190925_001619;0.227;9.450;-2.059;-0.001;-0.000;-0.000;
20190925_001619;0.237;9.452;-2.030;-0.000;0.001;-0.000;
20190925_001619;0.242;9.522;-2.143;-0.001;-0.000;0.001;
20190925_001619;0.244;9.527;-2.090;-0.000;-0.000;0.001;
20190925_001620;0.223;9.486;-2.047;0.001;-0.000;-0.000;
20190925_001620;0.278;9.512;-2.057;0.001;-0.000;0.001;
20190925_001620;0.261;9.469;-2.002;-0.000;-0.000;0.001;
20190925_001620;0.263;9.483;-2.140;-0.003;-0.000;0.000;
20190925_001620;0.273;9.486;-2.160;0.001;-0.000;-0.002;
20190925_001620;0.199;9.491;-2.054;0.001;-0.000;-0.001;
20190925_001620;0.204;9.522;-2.097;-0.002;0.001;-0.001;
20190925_001620;0.290;9.527;-2.121;0.001;0.001;-0.001;
20190925_001620;0.271;9.471;-2.097;0.001;-0.000;-0.001;
20190925_001621;0.204;9.481;-2.028;-0.002;-0.000;0.001;
20190925_001621;0.223;9.500;-2.114;0.001;0.001;0.000;
20190925_001621;0.249;9.464;-2.073;-0.002;-0.000;0.000;
20190925_001621;0.249;9.495;-2.083;-0.000;-0.002;-0.001;
20190925_001621;0.232;9.479;-2.145;0.002;-0.002;-0.001;
20190925_001621;0.237;9.488;-2.042;0.001;-0.000;-0.001;
20190925_001621;0.275;9.510;-2.073;-0.000;0.001;-0.002;
20190925_001621;0.237;9.498;-2.121;0.001;-0.000;-0.002;
20190925_001621;0.218;9.448;-2.049;0.001;-0.002;0.000;
20190925_001621;0.239;9.469;-2.093;0.002;-0.000;-0.002;
20190925_001622;0.263;9.515;-2.097;-0.000;0.001;0.000;
20190925_001622;0.261;9.464;-2.157;-0.000;-0.000;-0.001;
20190925_001622;0.268;9.481;-2.121;-0.000;0.001;-0.001;
20190925_001622;0.232;9.450;-2.052;-0.000;-0.000;-0.001;
20190925_001622;0.232;9.469;-2.069;-0.002;-0.000;-0.001;
20190925_001622;0.256;9.436;-2.131;0.001;-0.000;-0.001;
20190925_001622;0.271;9.522;-2.069;0.001;0.001;0.000;
20190925_001622;0.211;9.519;-2.030;0.001;-0.000;0.000;
20190925_001622;0.275;9.553;-2.121;-0.000;0.001;-0.001;
20190925_001623;0.251;9.503;-2.143;0.002;0.001;0.000;
20190925_001623;0.271;9.474;-2.109;-0.000;0.001;-0.001;
20190925_001623;0.249;9.450;-2.100;-0.000;0.001;0.000;
20190925_001623;0.266;9.488;-2.085;0.001;-0.000;-0.002;
20190925_001623;0.259;9.536;-2.057;-0.003;-0.000;0.000;
20190925_001623;0.242;9.546;-2.152;-0.002;0.001;-0.001;
20190925_001623;0.278;9.495;-2.136;-0.002;-0.002;-0.001;
20190925_001623;0.249;9.438;-2.054;-0.003;0.001;0.000;
20190925_001623;0.256;9.495;-2.059;-0.000;-0.002;0.000;
20190925_001624;0.201;9.467;-2.126;-0.000;-0.000;-0.001;
20190925_001624;0.230;9.512;-2.150;0.002;-0.002;0.000;
20190925_001624;0.247;9.538;-2.025;0.002;0.001;0.000;
20190925_001624;0.259;9.529;-2.035;-0.003;-0.000;0.000;
20190925_001624;0.247;9.491;-2.148;-0.002;-0.000;0.000;
20190925_001624;0.261;9.436;-2.066;-0.002;0.001;-0.001;
20190925_001624;0.271;9.421;-2.064;-0.000;-0.000;0.000;
20190925_001624;0.230;9.459;-2.030;0.002;-0.000;0.000;
20190925_001624;0.244;9.558;-2.095;0.001;0.001;0.000;
20190925_001624;0.256;9.558;-2.138;-0.002;-0.000;0.000;
20190925_001625;0.227;9.517;-2.124;-0.000;-0.000;-0.001;
20190925_001625;0.235;9.438;-2.071;0.001;-0.002;0.000;
20190925_001625;0.259;9.436;-2.078;0.001;-0.000;0.000;
20190925_001625;0.259;9.483;-2.064;-0.000;-0.000;0.001;
20190925_001625;0.271;9.474;-2.145;0.002;0.001;0.001;
20190925_001625;0.259;9.548;-2.052;-0.000;-0.000;0.001;
20190925_001625;0.256;9.562;-2.076;-0.000;-0.000;0.001;
20190925_001625;0.244;9.491;-2.143;-0.001;-0.000;-0.000;
20190925_001625;0.232;9.402;-2.095;-0.000;-0.000;-0.000;
20190925_001626;0.263;9.400;-2.064;0.001;-0.000;-0.000;
20190925_001626;0.239;9.524;-2.088;-0.000;0.001;-0.001;
20190925_001626;0.259;9.524;-2.116;-0.000;0.001;0.001;
20190925_001626;0.213;9.546;-2.054;0.002;-0.000;0.001;
20190925_001626;0.256;9.546;-2.081;0.001;-0.000;0.001;
20190925_001626;0.247;9.486;-2.085;-0.001;-0.000;-0.000;
20190925_001626;0.247;9.421;-2.121;-0.000;-0.002;0.001;
20190925_001626;0.249;9.443;-2.116;-0.000;-0.000;-0.000;
20190925_001626;0.263;9.498;-2.069;0.001;-0.000;-0.000;
20190925_001627;0.280;9.570;-2.061;0.002;-0.000;0.001;
20190925_001627;0.273;9.541;-2.112;0.002;0.001;0.001;
20190925_001627;0.227;9.479;-2.054;-0.001;0.001;0.001;
20190925_001627;0.230;9.450;-2.102;0.001;0.001;0.001;
20190925_001627;0.259;9.433;-2.035;0.001;-0.000;-0.000;
20190925_001627;0.244;9.450;-2.076;-0.000;0.001;-0.001;
20190925_001627;0.220;9.517;-1.992;-0.000;-0.000;0.001;
20190925_001627;0.227;9.548;-2.136;0.002;0.001;0.001;
20190925_001627;0.278;9.531;-2.090;-0.001;-0.000;-0.000;
20190925_001627;0.271;9.455;-2.121;-0.002;0.001;0.001;
20190925_001628;0.239;9.404;-2.059;-0.000;0.001;-0.000;
20190925_001628;0.230;9.471;-2.052;0.001;-0.002;-0.000;
20190925_001628;0.261;9.515;-2.140;0.002;-0.000;-0.000;
20190925_001628;0.266;9.550;-2.090;-0.000;-0.000;0.001;
20190925_001628;0.239;9.474;-2.102;-0.000;0.001;0.002;
20190925_001628;0.235;9.512;-2.066;0.001;-0.002;-0.000;
20190925_001628;0.280;9.471;-2.145;-0.002;-0.000;0.001;
20190925_001628;0.251;9.452;-2.100;0.001;-0.000;-0.000;
20190925_001628;0.196;9.445;-2.025;-0.000;0.001;-0.000;
20190925_001629;0.261;9.479;-2.052;-0.000;-0.000;-0.000;
20190925_001629;0.261;9.536;-2.100;0.001;-0.000;0.001;
20190925_001629;0.254;9.488;-2.102;-0.000;0.001;-0.000;
20190925_001629;0.239;9.438;-2.073;-0.000;-0.000;-0.000;
20190925_001629;0.280;9.436;-2.107;-0.001;-0.000;-0.000;
20190925_001629;0.254;9.481;-2.057;0.002;-0.002;-0.001;
20190925_001629;0.256;9.479;-2.112;-0.002;-0.000;-0.000;
20190925_001629;0.249;9.517;-2.047;-0.001;0.001;0.001;
20190925_001629;0.256;9.536;-2.054;0.001;-0.000;-0.000;
20190925_001629;0.244;9.500;-2.140;0.001;-0.000;0.001;
20190925_001630;0.266;9.469;-2.152;0.001;0.001;-0.000;
20190925_001630;0.242;9.467;-2.128;-0.000;-0.000;0.001;
20190925_001630;0.239;9.438;-2.081;-0.000;-0.000;-0.000;
20190925_001630;0.237;9.471;-2.040;-0.000;-0.000;-0.000;
20190925_001630;0.261;9.486;-1.994;-0.000;0.001;-0.000;
20190925_001630;0.259;9.515;-2.090;-0.002;-0.000;0.001;
20190925_001630;0.271;9.495;-2.131;0.001;-0.002;-0.000;
20190925_001630;0.206;9.467;-2.064;-0.001;-0.000;0.001;
20190925_001630;0.204;9.445;-2.037;0.001;-0.000;-0.000;
20190925_001631;0.290;9.510;-2.131;0.002;-0.000;0.001;
20190925_001631;0.218;9.548;-2.093;-0.000;0.001;0.001;
20190925_001631;0.239;9.512;-2.121;-0.000;0.001;-0.000;
20190925_001631;0.249;9.486;-2.095;0.001;-0.000;0.001;
20190925_001631;0.235;9.474;-2.085;-0.001;0.001;-0.000;
20190925_001631;0.215;9.493;-2.102;-0.001;-0.000;0.001;
20190925_001631;0.242;9.462;-2.124;0.002;-0.003;-0.001;
20190925_001631;0.275;9.462;-2.028;-0.000;0.001;0.001;
20190925_001631;0.271;9.488;-2.047;-0.000;0.001;0.001;
20190925_001632;0.254;9.498;-2.071;-0.000;-0.000;-0.000;
20190925_001632;0.251;9.469;-2.097;-0.000;0.001;-0.000;
20190925_001632;0.261;9.459;-2.011;-0.001;-0.002;0.002;
20190925_001632;0.239;9.476;-2.054;-0.000;-0.000;-0.000;
20190925_001632;0.230;9.529;-2.064;-0.000;-0.000;-0.000;
20190925_001632;0.249;9.534;-2.109;0.002;0.001;0.001;
20190925_001632;0.232;9.491;-2.128;0.001;-0.001;0.001;
20190925_001632;0.239;9.493;-2.002;-0.000;0.001;-0.000;
20190925_001632;0.256;9.459;-2.069;0.001;0.001;-0.000;
20190925_001633;0.242;9.469;-2.037;-0.001;-0.000;-0.000;
20190925_001633;0.268;9.488;-2.095;0.001;0.001;-0.000;
20190925_001633;0.259;9.481;-2.124;0.001;0.001;-0.000;
20190925_001633;0.227;9.498;-2.057;-0.000;0.001;0.001;
20190925_001633;0.235;9.527;-2.081;0.001;-0.001;-0.002;
20190925_001633;0.259;9.503;-2.112;-0.000;-0.000;0.001;
20190925_001633;0.242;9.507;-2.152;0.001;-0.000;0.001;
20190925_001633;0.225;9.462;-2.030;-0.000;-0.000;-0.000;
20190925_001633;0.247;9.495;-2.047;0.001;0.001;-0.000;
20190925_001633;0.239;9.452;-2.109;0.001;0.001;0.001;
20190925_001634;0.247;9.464;-2.085;-0.000;-0.000;-0.000;
20190925_001634;0.232;9.476;-2.054;-0.000;-0.000;-0.000;
20190925_001634;0.287;9.517;-2.085;-0.001;-0.000;0.001;
20190925_001634;0.254;9.498;-2.116;0.001;0.001;0.001;
20190925_001634;0.247;9.493;-2.131;-0.000;-0.000;-0.000;
20190925_001634;0.259;9.474;-2.061;0.001;0.001;-0.000;
20190925_001634;0.237;9.476;-2.081;0.002;-0.000;0.002;
20190925_001634;0.230;9.507;-2.126;0.001;-0.000;0.001;
20190925_001634;0.256;9.479;-2.076;-0.000;-0.000;-0.000;
20190925_001635;0.249;9.455;-2.030;-0.000;-0.000;0.001;
20190925_001635;0.271;9.448;-2.018;-0.001;-0.000;-0.002;
20190925_001635;0.268;9.483;-2.047;0.002;-0.000;0.001;
20190925_001635;0.261;9.471;-2.148;0.002;0.001;0.001;
20190925_001635;0.230;9.522;-2.143;0.001;-0.000;-0.000;
20190925_001635;0.254;9.486;-2.090;-0.000;-0.000;0.001;
20190925_001635;0.256;9.500;-2.109;-0.000;0.001;0.001;
20190925_001635;0.223;9.495;-2.097;-0.002;-0.001;0.001;
20190925_001635;0.251;9.459;-2.107;-0.000;-0.000;-0.000;
20190925_001635;0.251;9.443;-2.014;-0.000;0.001;-0.000;
20190925_001636;0.254;9.428;-2.023;-0.000;-0.001;0.001;
20190925_001636;0.251;9.488;-2.112;-0.000;-0.001;-0.000;
20190925_001636;0.247;9.474;-2.040;-0.001;0.001;0.002;
20190925_001636;0.254;9.488;-2.076;0.001;0.001;0.001;
20190925_001636;0.261;9.481;-2.076;-0.001;0.001;0.001;
20190925_001636;0.263;9.474;-1.990;-0.001;0.001;0.000;
20190925_001636;0.266;9.471;-2.114;0.001;0.001;0.000;
20190925_001636;0.261;9.455;-2.088;0.001;-0.000;-0.001;
20190925_001636;0.259;9.464;-2.064;0.001;-0.000;-0.002;
20190925_001637;0.235;9.517;-2.049;-0.000;0.001;0.000;
20190925_001637;0.254;9.495;-2.095;-0.000;0.001;0.000;
20190925_001637;0.268;9.445;-2.085;-0.000;0.001;0.000;
20190925_001637;0.249;9.498;-2.042;0.001;-0.000;0.000;
20190925_001637;0.237;9.503;-2.059;0.001;-0.001;-0.001;
20190925_001637;0.230;9.495;-2.028;0.001;-0.000;-0.001;
20190925_001637;0.271;9.476;-2.102;-0.000;-0.001;0.000;
20190925_001637;0.247;9.488;-2.081;0.001;-0.000;0.000;
20190925_001637;0.230;9.519;-2.114;0.001;-0.000;-0.002;
20190925_001638;0.247;9.495;-2.054;0.002;0.001;0.000;
20190925_001638;0.247;9.512;-2.152;0.002;-0.001;-0.001;
20190925_001638;0.247;9.467;-2.131;0.002;-0.000;-0.001;
20190925_001638;0.244;9.452;-2.095;-0.000;-0.000;0.000;
20190925_001638;0.251;9.495;-2.040;-0.000;0.001;0.000;
20190925_001638;0.237;9.483;-2.035;0.001;-0.000;0.000;
20190925_001638;0.266;9.495;-2.049;-0.000;-0.000;0.000;
20190925_001638;0.242;9.531;-2.145;0.001;-0.000;-0.001;
20190925_001638;0.225;9.462;-2.112;-0.000;0.001;-0.001;
20190925_001639;0.266;9.445;-2.133;-0.000;-0.000;-0.001;
20190925_001639;0.278;9.421;-2.059;0.001;-0.000;0.000;
20190925_001639;0.268;9.498;-2.083;-0.001;-0.001;0.000;
20190925_001639;0.297;9.522;-2.109;-0.000;-0.000;-0.001;
20190925_001639;0.266;9.498;-2.073;-0.000;-0.000;-0.001;
20190925_001639;0.256;9.459;-1.951;-0.001;-0.000;-0.001;
20190925_001639;0.280;9.459;-2.083;-0.002;-0.000;-0.001;
20190925_001639;0.247;9.436;-2.126;0.002;0.001;0.000;
20190925_001639;0.199;9.464;-2.009;0.001;-0.000;-0.001;
20190925_001639;0.273;9.550;-2.124;0.003;0.001;-0.001;
20190925_001640;0.266;9.550;-2.105;-0.000;0.001;0.000;
20190925_001640;0.223;9.491;-2.095;-0.001;0.001;0.000;
20190925_001640;0.223;9.428;-2.136;0.002;-0.000;-0.001;
20190925_001640;0.268;9.440;-1.987;-0.000;0.001;-0.001;
20190925_001640;0.254;9.503;-2.078;0.002;0.001;0.000;
20190925_001640;0.278;9.548;-2.054;-0.000;-0.000;-0.001;
20190925_001640;0.299;9.491;-2.081;0.001;-0.000;0.000;
20190925_001640;0.259;9.486;-2.152;0.001;-0.000;0.000;
20190925_001640;0.244;9.464;-2.030;0.001;-0.000;-0.001;
20190925_001641;0.268;9.495;-2.037;-0.001;0.001;0.001;
20190925_001641;0.256;9.469;-2.119;0.002;0.001;-0.001;
20190925_001641;0.227;9.459;-2.021;-0.000;-0.000;-0.001;
20190925_001641;0.235;9.476;-2.069;-0.000;-0.000;-0.001;
20190925_001641;0.273;9.500;-2.069;-0.001;-0.000;0.000;
20190925_001641;0.297;9.505;-2.100;0.001;-0.000;0.001;
20190925_001641;0.275;9.476;-2.136;-0.000;-0.000;0.001;
20190925_001641;0.215;9.457;-2.112;-0.000;-0.001;-0.001;
20190925_001641;0.249;9.471;-2.071;0.002;0.002;0.001;
20190925_001642;0.273;9.495;-2.064;0.002;-0.001;0.001;
20190925_001642;0.283;9.510;-2.090;0.002;-0.000;-0.002;
20190925_001642;0.225;9.507;-2.107;-0.000;-0.001;-0.001;
20190925_001642;0.273;9.471;-2.073;-0.000;-0.000;-0.001;
20190925_001642;0.256;9.474;-2.066;0.001;0.001;-0.001;
20190925_001642;0.232;9.503;-2.107;0.001;0.001;0.001;
20190925_001642;0.237;9.486;-2.107;0.002;0.001;-0.001;
20190925_001642;0.263;9.488;-2.095;-0.001;-0.001;-0.001;
20190925_001642;0.239;9.483;-2.081;-0.000;0.001;-0.001;
20190925_001643;0.271;9.474;-2.088;-0.000;-0.000;0.002;
20190925_001643;0.220;9.471;-2.030;-0.000;-0.000;0.001;
20190925_001643;0.225;9.481;-2.081;0.001;0.001;0.001;
20190925_001643;0.254;9.469;-2.083;-0.003;-0.000;0.001;
20190925_001643;0.247;9.488;-2.085;-0.000;-0.000;0.001;
20190925_001643;0.249;9.486;-2.073;-0.000;-0.000;-0.001;
20190925_001643;0.285;9.493;-2.114;0.002;-0.000;-0.001;
20190925_001643;0.239;9.483;-2.049;-0.000;-0.000;0.001;
20190925_001643;0.225;9.481;-2.128;0.001;-0.000;-0.001;
20190925_001643;0.273;9.438;-2.083;-0.001;-0.001;0.001;
20190925_001644;0.242;9.486;-2.033;0.001;0.001;-0.001;
20190925_001644;0.218;9.462;-2.040;0.003;-0.001;0.001;
20190925_001644;0.256;9.527;-2.073;0.002;0.001;0.001;
20190925_001644;0.261;9.560;-2.061;0.001;0.001;-0.001;
20190925_001644;0.232;9.498;-2.097;-0.001;-0.001;0.001;
20190925_001644;0.297;9.457;-2.116;-0.001;-0.000;-0.001;
20190925_001644;0.247;9.400;-2.066;-0.000;-0.000;0.001;
20190925_001644;0.278;9.452;-2.049;-0.000;0.001;0.001;
20190925_001644;0.275;9.500;-2.030;0.001;-0.000;0.001;
20190925_001645;0.225;9.536;-2.100;0.001;-0.000;0.001;
20190925_001645;0.242;9.577;-2.071;0.001;0.001;-0.001;
20190925_001645;0.242;9.493;-2.097;-0.000;0.001;-0.001;
20190925_001645;0.266;9.433;-2.073;-0.001;-0.000;-0.001;
20190925_001645;0.251;9.459;-2.052;0.002;-0.000;-0.001;
20190925_001645;0.263;9.498;-1.992;-0.000;0.001;0.001;
20190925_001645;0.232;9.546;-2.088;-0.001;0.001;-0.001;
20190925_001645;0.249;9.543;-2.093;0.001;0.001;-0.001;
20190925_001645;0.237;9.476;-2.071;-0.003;-0.000;0.001;
20190925_001646;0.237;9.445;-2.102;0.001;0.001;-0.002;
20190925_001646;0.237;9.443;-2.126;0.002;-0.000;-0.001;
20190925_001646;0.256;9.476;-2.097;0.001;-0.000;-0.001;
20190925_001646;0.280;9.515;-2.126;-0.000;-0.000;-0.001;
20190925_001646;0.261;9.527;-2.097;0.002;-0.000;-0.001;
20190925_001646;0.287;9.543;-2.018;-0.003;0.001;-0.001;
20190925_001646;0.271;9.476;-2.023;-0.004;0.001;0.001;
20190925_001646;0.268;9.371;-2.054;-0.000;0.001;-0.001;
20190925_001646;0.273;9.404;-2.037;0.002;-0.000;-0.001;
20190925_001647;0.230;9.486;-2.076;0.001;-0.000;0.001;
20190925_001647;0.204;9.574;-2.057;0.001;-0.000;-0.001;
20190925_001647;0.239;9.572;-2.085;0.001;-0.000;-0.001;
20190925_001647;0.254;9.543;-2.136;-0.000;-0.000;-0.001;
20190925_001647;0.223;9.438;-2.061;-0.001;-0.000;0.001;
20190925_001647;0.275;9.395;-2.116;0.001;0.001;0.001;
20190925_001647;0.266;9.467;-2.049;-0.000;0.002;0.002;
20190925_001647;0.244;9.534;-2.088;0.001;-0.000;-0.001;
20190925_001647;0.261;9.558;-2.093;-0.000;-0.001;0.002;
20190925_001647;0.239;9.543;-2.057;0.002;0.001;-0.001;
20190925_001648;0.280;9.488;-2.064;-0.000;-0.000;0.001;
20190925_001648;0.199;9.431;-2.088;-0.003;0.001;0.001;
20190925_001648;0.227;9.416;-2.047;0.001;-0.000;-0.001;
20190925_001648;0.232;9.481;-2.071;0.001;0.001;-0.001;
20190925_001648;0.239;9.541;-2.121;0.001;-0.000;0.001;
20190925_001648;0.249;9.534;-2.131;0.002;-0.000;-0.001;
20190925_001648;0.263;9.495;-2.049;-0.000;0.002;-0.001;
20190925_001648;0.271;9.517;-2.085;0.003;-0.000;-0.001;
20190925_001648;0.225;9.464;-2.126;-0.000;0.001;-0.001;
20190925_001649;0.285;9.455;-2.119;0.002;-0.001;-0.002;
20190925_001649;0.251;9.467;-2.066;-0.000;0.001;-0.001;
20190925_001649;0.283;9.469;-2.052;0.001;0.002;0.002;
20190925_001649;0.230;9.519;-2.071;-0.003;-0.000;0.001;
20190925_001649;0.244;9.469;-2.107;-0.003;0.001;0.001;
20190925_001649;0.232;9.450;-2.042;0.001;-0.000;-0.001;
20190925_001649;0.227;9.479;-2.078;0.001;-0.000;-0.001;
20190925_001649;0.223;9.498;-2.119;0.003;0.001;-0.002;
20190925_001649;0.242;9.491;-2.071;-0.001;-0.000;-0.001;
20190925_001649;0.223;9.510;-2.119;0.001;0.001;0.001;
20190925_001650;0.290;9.500;-2.081;0.003;-0.000;-0.001;
20190925_001650;0.254;9.493;-2.105;-0.000;-0.000;0.001;
20190925_001650;0.268;9.483;-2.081;-0.000;-0.000;0.001;
20190925_001650;0.275;9.450;-2.107;0.001;-0.000;-0.001;
20190925_001650;0.237;9.471;-2.066;-0.000;0.002;0.001;
20190925_001650;0.208;9.500;-2.128;-0.000;-0.000;-0.002;
20190925_001650;0.242;9.527;-2.136;0.002;-0.000;-0.001;
20190925_001650;0.227;9.479;-2.037;-0.003;0.001;-0.001;
20190925_001650;0.249;9.450;-2.097;-0.000;0.001;-0.002;
20190925_001651;0.227;9.455;-2.033;-0.000;-0.000;-0.001;
20190925_001651;0.254;9.450;-2.114;-0.001;-0.001;0.001;
20190925_001651;0.256;9.471;-2.081;0.001;-0.000;0.001;
20190925_001651;0.232;9.445;-2.057;-0.001;0.001;0.002;
20190925_001651;0.244;9.512;-2.097;0.002;-0.000;-0.001;
20190925_001651;0.263;9.481;-2.093;-0.001;-0.000;0.001;
20190925_001651;0.232;9.495;-2.128;-0.000;0.001;-0.001;
20190925_001651;0.232;9.474;-2.057;-0.000;0.001;-0.001;
20190925_001651;0.249;9.471;-2.109;-0.000;0.001;0.001;
20190925_001651;0.244;9.450;-2.107;0.001;-0.000;-0.001;
20190925_001652;0.242;9.469;-2.045;-0.000;-0.000;-0.001;
20190925_001652;0.247;9.505;-2.023;0.001;0.001;-0.001;
20190925_001652;0.235;9.505;-2.028;-0.000;-0.000;-0.001;
20190925_001652;0.247;9.538;-2.138;-0.000;-0.000;-0.001;
20190925_001652;0.223;9.474;-2.061;-0.003;-0.000;-0.001;
20190925_001652;0.256;9.488;-2.052;-0.000;-0.000;-0.001;
20190925_001652;0.266;9.479;-2.102;-0.001;-0.000;0.001;
20190925_001652;0.292;9.433;-2.073;0.001;0.001;0.001;
20190925_001652;0.235;9.474;-2.042;-0.000;-0.000;0.001;
20190925_001653;0.273;9.498;-2.047;-0.000;-0.000;0.001;
20190925_001653;0.275;9.515;-2.088;0.001;-0.000;-0.000;
20190925_001653;0.237;9.507;-2.085;-0.000;-0.000;-0.000;
20190925_001653;0.235;9.476;-2.076;-0.000;-0.000;-0.000;
20190925_001653;0.218;9.450;-2.088;0.001;0.002;-0.000;
20190925_001653;0.239;9.486;-2.100;-0.001;0.001;-0.001;
20190925_001653;0.268;9.443;-2.014;-0.000;-0.000;0.001;
20190925_001653;0.244;9.512;-2.121;0.001;-0.000;-0.000;
20190925_001653;0.227;9.531;-2.102;-0.001;-0.001;0.001;
20190925_001653;0.237;9.491;-2.093;-0.001;-0.000;-0.000;
20190925_001654;0.256;9.481;-2.126;-0.001;-0.001;-0.000;
20190925_001654;0.220;9.464;-2.064;-0.003;-0.000;-0.000;
20190925_001654;0.275;9.443;-2.042;-0.003;-0.000;0.001;
20190925_001654;0.273;9.464;-2.145;0.004;0.002;0.001;
20190925_001654;0.309;9.483;-2.119;0.002;0.001;0.001;
20190925_001654;0.280;9.488;-2.114;0.001;0.002;0.003;
20190925_001654;0.232;9.498;-2.073;0.001;-0.000;-0.000;
20190925_001654;0.251;9.486;-2.028;-0.001;-0.000;0.001;
20190925_001654;0.251;9.476;-2.061;-0.000;-0.000;0.001;
20190925_001655;0.235;9.486;-2.138;-0.000;-0.000;0.001;
20190925_001655;0.232;9.459;-2.095;0.001;-0.000;0.001;
20190925_001655;0.230;9.479;-2.047;0.001;0.001;-0.000;
20190925_001655;0.232;9.503;-2.066;0.001;-0.000;-0.000;
20190925_001655;0.225;9.479;-2.078;-0.000;-0.000;-0.000;
20190925_001655;0.297;9.493;-2.095;-0.001;-0.000;-0.000;
20190925_001655;0.256;9.462;-2.088;-0.001;-0.000;0.001;
20190925_001655;0.249;9.476;-2.105;0.001;0.001;0.001;
20190925_001655;0.242;9.498;-2.107;0.001;0.001;-0.000;
20190925_001656;0.251;9.524;-2.095;-0.000;0.001;0.001;
20190925_001656;0.256;9.462;-2.047;0.002;-0.000;0.001;
20190925_001656;0.225;9.462;-2.030;-0.000;0.001;-0.000;
20190925_001656;0.251;9.459;-2.033;0.002;0.001;0.001;
20190925_001656;0.268;9.505;-2.066;-0.001;0.001;-0.000;
20190925_001656;0.213;9.479;-2.052;0.001;-0.000;0.001;
20190925_001656;0.223;9.455;-2.107;0.001;-0.001;-0.000;
20190925_001656;0.261;9.479;-2.061;0.001;-0.000;-0.000;
20190925_001656;0.275;9.503;-2.105;-0.000;-0.000;-0.001;
20190925_001657;0.259;9.543;-2.045;-0.001;-0.000;0.000;
20190925_001657;0.254;9.500;-2.107;-0.001;-0.000;-0.001;
20190925_001657;0.239;9.471;-2.119;-0.000;-0.000;-0.001;
20190925_001657;0.247;9.483;-2.112;-0.000;-0.000;-0.001;
20190925_001657;0.227;9.500;-2.109;0.001;0.001;0.000;
20190925_001657;0.230;9.510;-2.133;0.001;-0.000;-0.001;
20190925_001657;0.247;9.469;-2.102;-0.000;0.001;0.000;
20190925_001657;0.225;9.483;-2.105;-0.000;-0.000;-0.001;
20190925_001657;0.254;9.462;-2.128;-0.000;-0.000;-0.001;
20190925_001657;0.275;9.459;-2.085;-0.001;-0.000;0.001;
20190925_001658;0.271;9.436;-2.152;-0.001;-0.000;-0.001;
20190925_001658;0.299;9.483;-2.131;-0.000;0.001;-0.001;
20190925_001658;0.268;9.464;-2.184;0.001;-0.000;0.000;
20190925_001658;0.237;9.483;-2.212;0.001;-0.001;-0.001;
20190925_001658;0.237;9.500;-2.200;-0.000;0.001;-0.001;
20190925_001658;0.275;9.481;-2.152;-0.000;0.001;-0.001;
20190925_001658;0.223;9.414;-2.107;-0.000;0.001;0.000;
20190925_001658;0.251;9.438;-2.088;-0.000;0.001;-0.001;
20190925_001658;0.225;9.471;-2.140;0.001;-0.000;-0.001;
20190925_001659;0.263;9.543;-2.121;-0.000;-0.000;-0.001;
20190925_001659;0.244;9.495;-2.167;-0.000;-0.000;0.000;
20190925_001659;0.237;9.474;-2.081;0.001;-0.000;-0.001;
20190925_001659;0.249;9.452;-2.049;-0.001;-0.000;0.000;
20190925_001659;0.254;9.462;-2.021;-0.000;-0.001;0.000;
20190925_001659;0.259;9.510;-2.105;-0.000;0.001;-0.001;
20190925_001659;0.232;9.534;-2.124;0.001;-0.000;0.000;
20190925_001659;0.256;9.483;-2.128;0.001;-0.000;-0.001;
20190925_001659;0.254;9.505;-2.047;-0.001;0.001;0.000;
20190925_001700;0.247;9.440;-2.088;-0.001;-0.000;-0.001;
20190925_001700;0.211;9.467;-2.061;-0.001;0.001;0.000;
20190925_001700;0.218;9.428;-2.124;0.001;-0.000;0.000;
20190925_001700;0.271;9.500;-2.136;0.001;-0.000;0.000;
20190925_001700;0.242;9.505;-2.073;-0.001;-0.000;0.000;
20190925_001700;0.230;9.479;-2.066;-0.000;-0.000;-0.001;
20190925_001700;0.244;9.476;-2.066;0.001;-0.000;-0.001;
20190925_001700;0.266;9.541;-2.119;0.001;-0.000;0.000;
20190925_001700;0.256;9.491;-2.176;0.001;-0.000;-0.001;
20190925_001701;0.254;9.455;-2.138;0.001;0.001;-0.001;
20190925_001701;0.292;9.481;-2.102;0.002;0.001;0.000;
20190925_001701;0.261;9.515;-2.186;0.002;-0.000;-0.001;
20190925_001701;0.244;9.517;-2.128;0.002;0.001;0.000;
20190925_001701;0.242;9.519;-2.184;-0.000;0.001;-0.001;
20190925_001701;0.256;9.438;-2.131;-0.001;-0.000;-0.001;
20190925_001701;0.230;9.385;-2.160;0.001;0.001;0.000;
20190925_001701;0.261;9.361;-2.136;-0.000;0.001;0.001;
20190925_001701;0.247;9.500;-2.243;0.003;0.001;0.000;
20190925_001701;0.263;9.582;-2.243;0.003;0.001;0.000;
20190925_001702;0.230;9.531;-2.193;-0.000;0.001;-0.001;
20190925_001702;0.247;9.505;-2.267;-0.000;0.001;0.000;
20190925_001702;0.292;9.388;-2.205;-0.001;-0.000;0.000;
20190925_001702;0.306;9.359;-2.195;-0.001;-0.000;-0.001;
20190925_001702;0.275;9.342;-2.210;-0.001;0.002;0.000;
20190925_001702;0.237;9.412;-2.274;0.002;-0.000;0.000;
20190925_001702;0.254;9.467;-2.203;0.002;0.001;0.000;
20190925_001702;0.275;9.529;-2.243;0.001;0.001;0.000;
20190925_001702;0.235;9.550;-2.344;0.001;0.001;-0.001;
20190925_001703;0.292;9.469;-2.231;-0.002;0.001;0.000;
20190925_001703;0.263;9.443;-2.303;-0.000;0.002;0.000;
20190925_001703;0.311;9.268;-2.191;-0.000;0.003;0.000;
20190925_001703;0.297;9.424;-2.344;0.003;0.001;0.001;
20190925_001703;0.247;9.479;-2.342;0.002;0.001;0.000;
20190925_001703;0.194;9.548;-2.263;-0.000;-0.000;-0.002;
20190925_001703;0.302;9.524;-2.342;-0.000;0.001;0.001;
20190925_001703;0.249;9.452;-2.344;0.001;0.002;0.001;
20190925_001703;0.247;9.474;-2.291;-0.001;0.002;0.000;
20190925_001704;0.239;9.383;-2.322;-0.001;0.002;0.001;
20190925_001704;0.254;9.395;-2.219;-0.000;0.001;-0.001;
20190925_001704;0.309;9.467;-2.258;0.003;0.002;0.000;
20190925_001704;0.251;9.543;-2.239;-0.000;-0.000;0.003;
20190925_001704;0.204;9.546;-2.231;-0.001;-0.000;-0.001;
20190925_001704;0.263;9.471;-2.279;-0.004;0.001;0.000;
20190925_001704;0.314;9.424;-2.298;-0.004;-0.000;0.000;
20190925_001704;0.273;9.361;-2.274;-0.002;-0.000;0.003;
20190925_001704;0.242;9.378;-2.294;0.002;-0.000;-0.001;
20190925_001704;0.306;9.469;-2.322;0.001;0.002;0.001;
20190925_001705;0.261;9.527;-2.370;-0.000;-0.000;0.000;
20190925_001705;0.266;9.553;-2.346;0.001;0.001;0.000;
20190925_001705;0.280;9.474;-2.308;-0.001;0.001;0.000;
20190925_001705;0.251;9.438;-2.310;-0.001;0.001;0.001;
20190925_001705;0.321;9.333;-2.243;-0.002;0.001;-0.001;
20190925_001705;0.302;9.404;-2.286;0.001;0.001;-0.001;
20190925_001705;0.266;9.500;-2.239;-0.000;0.002;0.000;
20190925_001705;0.316;9.519;-2.219;-0.000;0.001;-0.001;
20190925_001705;0.333;9.488;-2.207;-0.000;0.002;0.000;
20190925_001706;0.287;9.471;-2.246;0.001;0.002;-0.002;
20190925_001706;0.218;9.488;-2.270;0.001;0.003;-0.002;
20190925_001706;0.172;9.400;-2.255;-0.000;0.002;-0.003;
20190925_001706;0.227;9.400;-2.193;-0.001;0.002;-0.002;
20190925_001706;0.271;9.543;-2.193;0.001;-0.000;-0.001;
20190925_001706;0.283;9.555;-2.145;-0.000;0.001;-0.001;
20190925_001706;0.292;9.543;-2.136;0.001;-0.000;-0.002;
20190925_001706;0.287;9.505;-2.143;-0.005;0.002;-0.001;
20190925_001706;0.366;9.388;-2.136;-0.001;0.001;-0.003;
20190925_001707;0.318;9.395;-2.157;-0.001;-0.000;-0.004;
20190925_001707;0.338;9.431;-2.133;-0.000;0.001;-0.004;
20190925_001707;0.318;9.448;-2.105;0.001;0.003;-0.003;
20190925_001707;0.232;9.507;-2.133;0.001;0.001;-0.003;
20190925_001707;0.204;9.572;-2.231;0.003;0.002;-0.003;
20190925_001707;0.192;9.548;-2.157;-0.002;0.001;-0.002;
20190925_001707;0.189;9.529;-2.155;-0.000;0.001;-0.003;
20190925_001707;0.213;9.436;-2.150;-0.000;0.001;-0.001;
20190925_001707;0.237;9.321;-2.097;-0.001;0.002;-0.002;
20190925_001708;0.230;9.347;-2.083;-0.001;0.002;-0.002;
20190925_001708;0.230;9.436;-2.100;0.004;0.002;-0.003;
20190925_001708;0.299;9.488;-2.140;0.001;0.002;-0.002;
20190925_001708;0.247;9.548;-2.188;0.002;0.001;-0.001;
20190925_001708;0.208;9.503;-2.152;-0.001;0.001;-0.002;
20190925_001708;0.211;9.459;-2.205;-0.001;0.002;-0.001;
20190925_001708;0.194;9.378;-2.157;-0.000;0.002;-0.003;
20190925_001708;0.204;9.457;-2.195;-0.000;0.002;-0.001;
20190925_001708;0.196;9.479;-2.148;-0.000;0.001;-0.002;
20190925_001708;0.192;9.567;-2.210;0.001;0.001;-0.002;
20190925_001709;0.218;9.488;-2.205;0.002;0.002;0.000;
20190925_001709;0.215;9.433;-2.236;-0.000;-0.000;0.000;
20190925_001709;0.215;9.474;-2.150;-0.001;-0.000;0.000;
20190925_001709;0.223;9.517;-2.195;-0.000;-0.000;0.000;
20190925_001709;0.194;9.455;-2.205;-0.000;0.001;-0.001;
20190925_001709;0.215;9.443;-2.231;0.001;0.001;0.000;
20190925_001709;0.266;9.323;-2.155;-0.000;0.002;-0.001;
20190925_001709;0.263;9.455;-2.222;0.001;0.001;-0.001;
20190925_001709;0.235;9.500;-2.298;0.002;0.002;-0.001;
20190925_001710;0.225;9.450;-2.219;-0.000;0.002;-0.001;
20190925_001710;0.172;9.397;-2.210;0.001;0.001;0.000;
20190925_001710;0.211;9.481;-2.200;0.001;0.002;0.000;
20190925_001710;0.237;9.457;-2.203;-0.001;0.001;0.001;
20190925_001710;0.227;9.400;-2.207;0.002;0.002;0.001;
20190925_001710;0.220;9.385;-2.219;0.001;0.001;0.001;
20190925_001710;0.249;9.424;-2.253;0.001;0.001;0.000;
20190925_001710;0.342;9.450;-2.251;0.002;0.002;0.001;
20190925_001710;0.311;9.495;-2.272;0.001;0.001;0.000;
20190925_001711;0.208;9.443;-2.253;0.001;0.002;-0.001;
20190925_001711;0.177;9.471;-2.255;-0.000;-0.000;-0.001;
20190925_001711;0.170;9.467;-2.239;-0.000;0.002;-0.001;
20190925_001711;0.192;9.462;-2.294;0.001;0.001;-0.001;
20190925_001711;0.213;9.438;-2.267;0.002;0.002;-0.001;
20190925_001711;0.218;9.445;-2.217;0.001;0.002;-0.001;
20190925_001711;0.220;9.608;-2.265;0.002;0.002;0.000;
20190925_001711;0.326;9.598;-2.267;-0.001;0.002;0.000;
20190925_001711;0.309;9.433;-2.210;-0.001;0.002;0.000;
20190925_001712;0.256;9.335;-2.198;-0.000;0.001;-0.001;
20190925_001712;0.213;9.318;-2.186;0.001;-0.000;-0.001;
20190925_001712;0.256;9.548;-2.212;0.002;0.001;-0.001;
20190925_001712;0.251;9.529;-2.167;0.003;0.003;-0.001;
20190925_001712;0.256;9.565;-2.219;-0.000;0.001;0.000;
20190925_001712;0.194;9.488;-2.217;-0.001;0.001;0.001;
20190925_001712;0.201;9.421;-2.200;-0.002;0.001;0.000;
20190925_001712;0.211;9.431;-2.107;-0.001;0.002;0.001;
20190925_001712;0.208;9.404;-2.160;0.001;0.002;0.000;
20190925_001712;0.266;9.424;-2.241;0.001;0.002;0.000;
20190925_001713;0.302;9.591;-2.200;0.002;0.001;0.000;
20190925_001713;0.251;9.589;-2.145;-0.001;0.001;-0.001;
20190925_001713;0.251;9.531;-2.184;-0.002;0.002;0.000;
20190925_001713;0.266;9.431;-2.212;-0.000;0.002;0.001;
20190925_001713;0.213;9.345;-2.148;-0.001;0.001;-0.001;
20190925_001713;0.194;9.438;-2.143;-0.000;0.001;0.000;
20190925_001713;0.201;9.476;-2.198;0.004;0.002;0.000;
20190925_001713;0.261;9.543;-2.160;0.002;0.001;0.000;
20190925_001713;0.235;9.495;-2.172;0.002;0.001;-0.001;
20190925_001714;0.247;9.495;-2.219;0.001;0.003;0.000;
20190925_001714;0.230;9.534;-2.193;-0.002;0.001;-0.001;
20190925_001714;0.235;9.527;-2.131;-0.001;0.001;-0.001;
20190925_001714;0.251;9.431;-2.181;-0.000;0.001;0.000;
20190925_001714;0.271;9.357;-2.148;-0.000;0.002;0.000;
20190925_001714;0.223;9.383;-2.155;-0.000;0.001;-0.001;
20190925_001714;0.215;9.462;-2.184;-0.000;-0.000;-0.002;
20190925_001714;0.273;9.471;-2.186;0.002;0.001;-0.001;
20190925_001714;0.321;9.488;-2.198;0.001;0.002;-0.001;
20190925_001714;0.278;9.488;-2.227;-0.001;0.001;0.000;
20190925_001715;0.182;9.476;-2.198;-0.000;0.001;-0.001;
20190925_001715;0.227;9.412;-2.164;-0.001;0.001;-0.001;
20190925_001715;0.223;9.457;-2.176;-0.000;0.001;-0.002;
20190925_001715;0.227;9.419;-2.167;-0.001;0.001;0.000;
20190925_001715;0.192;9.483;-2.193;0.001;-0.000;-0.002;
20190925_001715;0.223;9.491;-2.236;-0.001;0.001;-0.001;
20190925_001715;0.266;9.550;-2.114;-0.001;0.001;-0.002;
20190925_001715;0.261;9.503;-2.150;-0.001;0.001;0.000;
20190925_001715;0.239;9.328;-2.152;-0.001;0.002;-0.001;
20190925_001716;0.180;9.287;-2.160;0.002;0.002;0.000;
20190925_001716;0.232;9.433;-2.160;0.004;-0.000;-0.001;
20190925_001716;0.285;9.498;-2.195;0.001;0.002;-0.001;
20190925_001716;0.290;9.596;-2.200;0.005;0.001;-0.003;
20190925_001716;0.268;9.522;-2.088;-0.001;0.002;-0.001;
20190925_001716;0.225;9.464;-2.152;0.001;0.001;-0.002;
20190925_001716;0.223;9.428;-2.140;0.002;-0.000;-0.003;
20190925_001716;0.139;9.488;-2.105;0.001;0.001;-0.002;
20190925_001716;0.239;9.519;-2.157;-0.001;0.002;0.004;
20190925_001717;0.163;9.503;-2.203;-0.000;0.001;0.000;
20190925_001717;0.242;9.412;-2.049;0.001;0.002;0.000;
20190925_001717;0.225;9.380;-2.131;0.003;-0.000;0.001;
20190925_001717;0.247;9.570;-2.155;0.002;0.001;0.001;
20190925_001717;0.285;9.505;-2.167;0.001;0.002;-0.001;
20190925_001717;0.259;9.589;-2.186;-0.001;0.002;0.001;
20190925_001717;0.218;9.486;-2.181;-0.001;0.002;0.001;
20190925_001717;0.194;9.438;-2.272;-0.001;0.001;-0.001;
20190925_001717;0.256;9.373;-2.191;-0.002;0.001;-0.001;
20190925_001718;0.266;9.467;-2.145;-0.000;-0.000;-0.002;
20190925_001718;0.199;9.512;-2.231;0.001;0.002;-0.001;
20190925_001718;0.244;9.555;-2.248;-0.000;0.003;-0.001;
20190925_001718;0.215;9.618;-2.200;-0.000;0.001;-0.002;
20190925_001718;0.194;9.553;-2.102;-0.002;-0.000;-0.002;
20190925_001718;0.235;9.373;-2.088;-0.004;0.001;-0.001;
20190925_001718;0.208;9.378;-2.128;-0.001;0.002;-0.002;
20190925_001718;0.215;9.438;-2.124;-0.000;0.002;-0.001;
20190925_001718;0.283;9.565;-2.143;-0.001;0.001;-0.001;
20190925_001718;0.261;9.503;-2.037;-0.002;-0.000;-0.001;
20190925_001719;0.261;9.488;-2.188;-0.000;0.001;-0.002;
20190925_001719;0.230;9.404;-2.088;-0.001;0.001;-0.002;
20190925_001719;0.208;9.383;-2.138;0.001;0.002;-0.002;
20190925_001719;0.244;9.512;-2.148;-0.000;0.001;-0.003;
20190925_001719;0.290;9.448;-2.081;-0.004;-0.000;-0.003;
20190925_001719;0.237;9.455;-2.114;-0.001;0.001;-0.003;
20190925_001719;0.175;9.440;-2.071;-0.001;0.001;-0.003;
20190925_001719;0.256;9.505;-2.109;-0.001;-0.000;-0.001;
20190925_001719;0.187;9.512;-2.188;-0.001;0.001;-0.002;
20190925_001720;0.168;9.397;-2.136;-0.002;0.001;0.000;
20190925_001720;0.204;9.304;-2.162;-0.000;-0.000;-0.001;
20190925_001720;0.172;9.378;-2.112;0.001;0.002;0.000;
20190925_001720;0.175;9.637;-2.239;0.002;0.002;0.000;
20190925_001720;0.177;9.618;-2.219;-0.000;0.001;0.000;
20190925_001720;0.204;9.522;-2.217;-0.000;0.001;0.000;
20190925_001720;0.220;9.294;-2.073;-0.002;0.001;0.003;
20190925_001720;0.211;9.330;-2.162;0.001;0.002;0.003;
20190925_001720;0.271;9.505;-2.131;0.002;0.001;0.001;
20190925_001720;0.196;9.687;-2.112;0.003;0.001;-0.001;
20190925_001721;0.218;9.491;-2.119;-0.001;0.002;-0.001;
20190925_001721;0.235;9.491;-2.205;-0.000;-0.000;0.001;
20190925_001721;0.232;9.586;-2.198;0.001;0.001;0.000;
20190925_001721;0.271;9.618;-2.181;-0.002;0.002;0.001;
20190925_001721;0.242;9.479;-2.207;0.001;-0.000;0.000;
20190925_001721;0.242;9.349;-2.078;-0.002;0.001;-0.001;
20190925_001721;0.314;9.287;-2.073;-0.001;0.001;-0.001;
20190925_001721;0.311;9.419;-2.095;0.001;0.001;-0.002;
20190925_001721;0.249;9.505;-2.157;0.001;0.001;-0.002;
20190925_001722;0.225;9.529;-2.248;-0.001;-0.000;-0.001;
20190925_001722;0.218;9.452;-2.236;-0.000;0.001;-0.001;
20190925_001722;0.156;9.567;-2.172;-0.002;0.001;-0.002;
20190925_001722;0.168;9.483;-2.179;-0.004;0.002;0.001;
20190925_001722;0.182;9.347;-2.210;-0.001;0.002;0.001;
20190925_001722;0.175;9.347;-2.152;-0.002;0.001;0.001;
20190925_001722;0.256;9.457;-2.198;-0.001;0.002;0.001;
20190925_001722;0.225;9.467;-2.195;-0.001;0.001;0.001;
20190925_001722;0.285;9.452;-2.167;-0.000;-0.000;0.003;
20190925_001723;0.266;9.452;-2.176;-0.000;0.001;0.001;
20190925_001723;0.266;9.404;-2.248;0.002;0.001;-0.001;
20190925_001723;0.254;9.479;-2.265;0.002;0.001;-0.001;
20190925_001723;0.283;9.560;-2.301;-0.000;0.001;-0.001;
20190925_001723;0.271;9.495;-2.234;-0.001;-0.000;0.000;
20190925_001723;0.199;9.510;-2.231;-0.001;-0.000;-0.004;
20190925_001723;0.192;9.416;-2.274;-0.001;0.003;-0.002;
20190925_001723;0.213;9.431;-2.186;0.001;0.001;-0.001;
20190925_001723;0.206;9.369;-2.270;-0.001;0.001;-0.001;
20190925_001723;0.103;9.335;-2.310;0.004;0.002;-0.001;
20190925_001724;0.182;9.538;-2.279;0.005;0.001;-0.001;
20190925_001724;0.247;9.641;-2.241;-0.000;0.001;-0.002;
20190925_001724;0.316;9.658;-2.334;0.001;0.002;-0.001;
20190925_001724;0.242;9.450;-2.303;-0.001;0.002;-0.002;
20190925_001724;0.184;9.294;-2.246;-0.002;0.001;-0.002;
20190925_001724;0.129;9.347;-2.298;-0.000;-0.000;-0.001;
20190925_001724;0.146;9.476;-2.217;0.001;0.001;-0.002;
20190925_001724;0.244;9.500;-2.298;0.001;0.003;0.003;
20190925_001724;0.266;9.507;-2.231;-0.000;0.001;-0.001;
20190925_001725;0.115;9.560;-2.251;-0.001;0.002;0.003;
20190925_001725;0.136;9.565;-2.363;0.002;0.001;0.001;
20190925_001725;0.278;9.450;-2.258;-0.002;0.002;0.005;
20190925_001725;0.206;9.481;-2.277;0.001;0.001;0.001;
20190925_001725;0.256;9.287;-2.181;-0.006;0.002;0.004;
20190925_001725;0.263;9.445;-2.291;0.003;0.002;0.003;
20190925_001725;0.170;9.452;-2.389;0.003;0.003;0.004;
20190925_001725;0.283;9.546;-2.282;0.002;-0.000;0.003;
20190925_001725;0.266;9.438;-2.294;-0.000;0.003;0.006;
20190925_001726;0.211;9.469;-2.241;-0.002;0.004;0.007;
20190925_001726;0.120;9.584;-2.263;0.001;0.002;0.004;
20190925_001726;0.302;9.364;-2.318;-0.005;0.004;0.006;
20190925_001726;0.311;9.371;-2.298;-0.000;0.002;0.003;
20190925_001726;0.362;9.316;-2.155;-0.001;0.001;0.003;
20190925_001726;0.390;9.316;-2.282;0.003;0.001;0.001;
20190925_001726;0.366;9.438;-2.452;0.003;0.001;-0.003;
20190925_001726;0.354;9.459;-2.301;0.003;0.001;-0.004;
20190925_001726;0.321;9.558;-2.265;0.001;-0.000;-0.005;
20190925_001726;0.266;9.388;-2.277;-0.001;-0.000;-0.004;
20190925_001727;0.204;9.682;-2.342;0.004;-0.000;-0.006;
20190925_001727;0.266;9.747;-2.385;-0.001;-0.000;-0.005;
20190925_001727;0.297;9.390;-2.308;-0.008;0.002;-0.004;
20190925_001727;0.314;9.445;-2.286;-0.000;0.001;-0.005;
20190925_001727;0.192;9.297;-2.169;-0.002;0.002;-0.006;
20190925_001727;0.215;9.311;-2.131;-0.000;0.003;-0.007;
20190925_001727;0.268;9.483;-2.229;-0.001;0.002;-0.007;
20190925_001727;0.163;9.562;-2.258;0.002;0.003;-0.005;
20190925_001727;0.206;9.651;-2.346;-0.000;0.003;-0.006;
20190925_001728;0.182;9.234;-2.160;-0.002;0.004;-0.003;
20190925_001728;0.038;9.507;-2.102;-0.000;0.001;-0.005;
20190925_001728;0.069;9.579;-2.274;-0.002;0.002;-0.005;
20190925_001728;0.285;9.330;-2.296;-0.001;0.002;-0.002;
20190925_001728;0.146;9.390;-2.133;-0.000;0.001;-0.002;
20190925_001728;0.077;9.299;-2.119;0.001;0.001;-0.003;
20190925_001728;0.208;9.421;-2.318;0.002;-0.000;0.001;
20190925_001728;0.065;9.431;-2.212;-0.001;0.001;0.004;
20190925_001728;0.158;9.711;-2.239;0.005;-0.000;-0.001;
20190925_001728;0.304;9.644;-2.399;-0.000;0.003;0.005;
20190925_001729;0.208;9.479;-2.277;-0.002;0.001;0.000;
20190925_001729;0.115;9.373;-2.184;-0.001;-0.000;-0.001;
20190925_001729;0.122;9.392;-2.066;0.001;-0.000;-0.003;
20190925_001729;0.249;9.507;-2.188;0.001;0.001;0.000;
20190925_001729;0.182;9.515;-2.325;0.002;0.003;0.004;
20190925_001729;0.050;9.378;-2.148;-0.002;0.001;0.001;
20190925_001729;0.192;9.388;-1.958;0.001;0.001;0.004;
20190925_001729;0.199;9.340;-2.193;0.005;0.003;0.008;
20190925_001729;0.266;9.419;-2.210;0.004;0.002;0.005;
20190925_001730;0.273;9.522;-2.157;-0.004;0.001;0.007;
20190925_001730;0.213;9.471;-2.184;-0.000;0.001;0.004;
20190925_001730;0.247;9.543;-2.315;0.001;0.001;0.001;
20190925_001730;0.426;9.651;-2.186;-0.000;0.002;0.004;
20190925_001730;0.371;9.651;-2.306;-0.000;0.002;0.004;
20190925_001730;0.251;9.421;-2.279;-0.004;0.001;-0.002;
20190925_001730;0.213;9.443;-2.286;-0.001;0.003;0.001;
20190925_001730;0.371;9.251;-2.021;-0.005;0.003;0.003;
20190925_001730;0.309;9.309;-2.241;0.001;0.001;-0.001;
20190925_001730;0.304;9.464;-2.342;0.006;0.002;-0.005;
20190925_001731;0.273;9.448;-2.167;-0.001;0.002;-0.004;
20190925_001731;0.227;9.407;-2.224;0.001;-0.000;-0.005;
20190925_001731;0.232;9.297;-2.174;-0.001;0.003;-0.004;
20190925_001731;0.352;9.579;-2.059;-0.000;0.001;-0.005;
20190925_001731;0.271;9.436;-2.351;0.003;0.002;-0.002;
20190925_001731;0.122;9.531;-2.406;0.001;0.001;-0.003;
20190925_001731;0.163;9.412;-2.069;-0.002;0.001;-0.002;
20190925_001731;0.151;9.443;-2.150;-0.000;0.001;-0.003;
20190925_001731;0.127;9.493;-2.318;0.003;0.002;0.001;
20190925_001732;0.146;9.529;-2.174;0.002;0.002;0.003;
20190925_001732;0.218;9.720;-2.105;0.001;0.001;0.004;
20190925_001732;0.235;9.500;-2.150;-0.001;0.001;0.004;
20190925_001732;0.235;9.426;-2.449;0.005;0.002;0.003;
20190925_001732;0.271;9.412;-2.179;0.001;0.002;0.000;
20190925_001732;0.321;9.452;-2.004;-0.000;-0.000;-0.001;
20190925_001732;0.199;9.711;-2.157;0.003;0.002;-0.002;
20190925_001732;0.369;9.677;-2.339;-0.000;0.002;0.000;
20190925_001732;0.364;9.471;-2.200;-0.004;0.002;0.001;
20190925_001733;0.287;9.337;-2.143;-0.004;-0.001;-0.001;
20190925_001733;0.124;9.596;-2.150;-0.004;0.001;-0.003;
20190925_001733;0.263;9.620;-2.246;-0.004;0.001;-0.004;
20190925_001733;0.481;9.483;-2.143;-0.002;0.001;-0.002;
20190925_001733;0.139;9.471;-1.908;-0.004;-0.000;-0.004;
20190925_001733;0.084;9.553;-2.009;-0.002;-0.000;-0.006;
20190925_001733;0.117;9.438;-1.985;-0.001;-0.000;-0.001;
20190925_001733;0.172;9.354;-1.750;-0.007;-0.000;0.005;
20190925_001733;0.081;9.440;-1.875;-0.001;-0.000;0.005;
20190925_001734;-0.019;9.589;-2.100;0.004;-0.001;0.004;
20190925_001734;0.170;9.601;-2.126;-0.005;-0.000;0.007;
20190925_001734;0.280;9.457;-1.982;0.001;0.001;0.007;
20190925_001734;0.273;9.649;-1.870;-0.000;-0.002;0.000;
20190925_001734;0.369;9.474;-2.093;0.003;-0.000;0.001;
20190925_001734;0.417;9.433;-2.042;-0.000;-0.001;-0.002;
20190925_001734;0.345;9.189;-1.822;-0.007;-0.001;-0.001;
20190925_001734;0.239;9.440;-1.906;0.003;-0.003;-0.002;
20190925_001734;0.172;9.622;-1.808;0.003;-0.002;-0.003;
20190925_001734;0.170;9.699;-1.915;0.001;-0.001;-0.002;
20190925_001735;0.297;9.512;-1.906;0.003;-0.001;-0.001;
20190925_001735;0.326;9.529;-1.745;-0.004;-0.002;0.001;
20190925_001735;0.172;9.644;-1.872;-0.000;-0.000;-0.001;
20190925_001735;0.208;9.567;-1.829;-0.000;-0.000;-0.001;
20190925_001735;0.321;9.582;-1.492;-0.007;-0.000;0.003;
20190925_001735;0.405;9.529;-1.307;-0.007;0.001;0.001;
20190925_001735;0.278;9.589;-1.542;-0.004;0.001;0.000;
20190925_001735;0.175;9.443;-1.920;0.002;0.003;0.001;
20190925_001735;0.182;9.222;-1.769;-0.000;-0.001;-0.002;
20190925_001736;0.227;9.304;-1.714;0.004;-0.000;-0.001;
20190925_001736;0.362;9.306;-1.769;-0.000;0.001;0.001;
20190925_001736;0.299;9.610;-2.061;0.007;0.001;0.001;
20190925_001736;0.127;9.811;-2.061;0.006;-0.001;0.000;
20190925_001736;0.129;9.728;-2.064;0.001;-0.000;0.000;
20190925_001736;0.280;9.632;-1.851;-0.005;-0.000;0.004;
20190925_001736;0.323;9.469;-1.903;-0.005;-0.000;0.005;
20190925_001736;0.187;9.538;-2.105;-0.000;0.001;0.006;
20190925_001736;0.117;9.471;-1.939;-0.001;-0.000;0.004;
20190925_001737;0.151;9.457;-1.832;-0.002;-0.001;0.004;
20190925_001737;0.271;9.337;-1.858;-0.000;0.001;0.006;
20190925_001737;0.393;9.428;-1.798;-0.002;0.001;0.006;
20190925_001737;0.385;9.606;-1.997;0.003;0.001;0.008;
20190925_001737;0.086;9.694;-1.973;0.003;-0.000;0.004;
20190925_001737;0.283;9.704;-1.930;-0.002;-0.000;0.004;
20190925_001737;0.491;9.541;-1.810;-0.006;0.001;0.008;
20190925_001737;0.297;9.481;-1.738;-0.001;0.001;0.003;
20190925_001737;0.256;9.699;-1.925;0.002;-0.001;-0.001;
20190925_001737;0.390;9.495;-1.724;-0.005;-0.000;0.001;
20190925_001738;0.551;9.352;-1.645;-0.007;-0.000;-0.001;
20190925_001738;0.426;9.373;-1.712;-0.001;-0.001;-0.002;
20190925_001738;0.366;9.464;-1.686;0.002;-0.001;-0.004;
20190925_001738;0.405;9.457;-1.666;0.003;-0.000;-0.006;
20190925_001738;0.342;9.622;-1.472;-0.000;-0.001;-0.007;
20190925_001738;0.287;9.613;-1.475;-0.000;-0.000;-0.007;
20190925_001738;0.266;9.682;-1.707;0.006;0.001;-0.005;
20190925_001738;0.330;9.555;-1.784;-0.002;0.002;-0.006;
20190925_001738;0.321;9.503;-1.640;-0.001;0.002;-0.005;
20190925_001739;0.175;9.471;-1.731;-0.004;0.001;-0.004;
20190925_001739;0.134;9.534;-1.829;-0.000;0.002;-0.006;
20190925_001739;0.156;9.448;-1.911;0.001;0.001;-0.004;
20190925_001739;0.278;9.488;-1.997;0.002;0.002;-0.002;
20190925_001739;0.160;9.421;-1.968;-0.001;0.001;-0.001;
20190925_001739;0.079;9.591;-1.961;0.001;0.001;-0.003;
20190925_001739;0.158;9.524;-1.963;-0.000;-0.000;0.000;
20190925_001739;0.192;9.507;-2.042;0.002;0.002;0.003;
20190925_001739;0.194;9.479;-2.016;-0.000;-0.000;0.000;
20190925_001739;0.338;9.701;-1.908;0.002;-0.000;0.003;
20190925_001740;0.517;9.471;-1.836;-0.006;-0.000;0.003;
20190925_001740;0.448;9.457;-1.949;-0.005;-0.001;-0.002;
20190925_001740;0.366;9.505;-1.824;-0.002;-0.001;-0.007;
20190925_001740;0.462;9.385;-1.865;-0.004;-0.001;-0.007;
20190925_001740;0.309;9.385;-2.064;0.001;0.002;-0.005;
20190925_001740;0.067;9.491;-1.848;-0.002;-0.000;-0.008;
20190925_001740;0.165;9.541;-1.906;0.001;-0.000;-0.004;
20190925_001740;-0.034;9.457;-1.946;0.001;0.002;0.000;
20190925_001740;-0.069;9.606;-2.016;0.003;0.002;0.003;
20190925_001741;0.000;9.732;-1.992;-0.001;0.002;0.003;
20190925_001741;0.230;9.495;-1.937;-0.004;0.002;0.005;
20190925_001741;0.218;9.469;-1.884;0.001;-0.000;0.004;
20190925_001741;0.153;9.404;-1.695;-0.005;-0.001;0.001;
20190925_001741;0.357;9.510;-1.824;0.002;-0.000;-0.001;
20190925_001741;0.362;9.567;-1.884;-0.001;-0.000;-0.001;
20190925_001741;0.278;9.586;-1.877;-0.000;-0.000;0.000;
20190925_001741;0.144;9.481;-1.566;-0.004;-0.003;-0.001;
20190925_001741;0.194;9.443;-1.669;0.001;-0.001;0.004;
20190925_001742;0.117;9.534;-1.774;-0.001;-0.002;0.001;
20190925_001742;0.208;9.570;-1.719;-0.001;-0.001;0.003;
20190925_001742;0.208;9.579;-1.760;0.001;0.001;0.005;
20190925_001742;0.213;9.510;-1.767;-0.000;-0.000;0.003;
20190925_001742;0.273;9.529;-1.939;0.004;-0.000;0.003;
20190925_001742;0.333;9.479;-1.939;-0.000;-0.000;0.006;
20190925_001742;0.419;9.550;-1.870;-0.001;0.001;0.006;
20190925_001742;0.263;9.606;-1.937;-0.000;-0.001;0.004;
20190925_001742;0.330;9.419;-2.116;0.002;0.002;0.003;
20190925_001743;0.362;9.409;-1.932;0.001;0.002;0.004;
20190925_001743;0.321;9.594;-1.882;0.001;0.001;0.001;
20190925_001743;0.328;9.615;-2.066;0.002;0.001;0.000;
20190925_001743;0.388;9.433;-1.968;-0.005;-0.000;-0.001;
20190925_001743;0.393;9.476;-2.061;-0.000;0.002;0.000;
20190925_001743;0.302;9.448;-1.915;-0.001;0.001;-0.002;
20190925_001743;0.192;9.392;-1.982;-0.000;-0.000;-0.004;
20190925_001743;0.283;9.589;-2.121;0.003;0.002;-0.004;
20190925_001743;0.335;9.570;-1.987;-0.001;0.001;-0.004;
20190925_001744;0.335;9.555;-2.052;-0.001;-0.000;-0.006;
20190925_001744;0.280;9.364;-1.973;-0.002;0.001;-0.003;
20190925_001744;0.294;9.419;-1.961;0.001;-0.000;-0.004;
20190925_001744;0.242;9.670;-1.918;0.002;0.002;-0.004;
20190925_001744;0.153;9.574;-1.920;-0.006;-0.000;-0.004;
20190925_001744;0.122;9.445;-1.757;-0.004;-0.000;-0.001;
20190925_001744;0.163;9.515;-1.671;-0.004;-0.001;-0.001;
20190925_001744;0.129;9.677;-1.616;-0.001;-0.001;-0.002;
20190925_001744;0.144;9.555;-1.633;-0.001;-0.001;0.000;
20190925_001745;0.206;9.491;-1.575;-0.000;-0.002;0.001;
20190925_001745;0.235;9.357;-1.561;0.001;-0.003;0.003;
20190925_001745;0.204;9.474;-1.693;0.004;-0.002;0.001;
20190925_001745;0.242;9.732;-1.800;0.007;-0.002;-0.001;
20190925_001745;0.373;9.773;-1.683;0.002;-0.002;0.001;
20190925_001745;0.479;9.464;-1.635;-0.005;-0.002;0.001;
20190925_001745;0.357;9.402;-1.678;-0.000;-0.000;0.000;
20190925_001745;0.151;9.452;-1.532;-0.001;-0.002;0.000;
20190925_001745;0.235;9.529;-1.709;-0.000;-0.001;0.000;
20190925_001745;0.280;9.651;-1.777;0.004;0.001;0.005;
20190925_001746;0.321;9.577;-1.580;-0.001;-0.000;0.004;
20190925_001746;0.385;9.433;-1.460;-0.005;-0.000;0.003;
20190925_001746;0.249;9.426;-1.499;-0.000;-0.002;0.000;
20190925_001746;0.366;9.555;-1.729;0.002;-0.000;0.003;
20190925_001746;0.505;9.419;-1.824;0.002;0.002;0.004;
20190925_001746;0.441;9.404;-1.935;0.001;0.001;0.001;
20190925_001746;0.280;9.517;-2.002;0.003;0.003;0.001;
20190925_001746;0.405;9.402;-2.028;0.002;0.002;-0.001;
20190925_001746;0.445;9.531;-2.152;0.005;0.004;0.001;
20190925_001747;0.223;9.534;-2.105;0.001;0.004;-0.001;
20190925_001747;0.204;9.651;-2.126;0.001;0.003;-0.003;
20190925_001747;0.249;9.538;-2.131;-0.001;0.001;-0.003;
20190925_001747;0.235;9.510;-2.016;-0.002;0.002;-0.002;
20190925_001747;0.263;9.450;-2.150;-0.004;0.003;0.003;
20190925_001747;0.283;9.345;-2.112;-0.002;0.003;0.000;
20190925_001747;0.263;9.378;-2.121;-0.000;0.001;0.000;
20190925_001747;0.227;9.376;-2.047;0.002;0.002;-0.001;
20190925_001747;0.340;9.527;-2.143;0.003;0.002;0.000;
20190925_001748;0.400;9.574;-2.267;0.002;0.004;0.000;
20190925_001748;0.254;9.594;-2.097;-0.000;0.001;-0.003;
20190925_001748;0.271;9.515;-2.184;0.001;0.002;-0.001;
20190925_001748;0.259;9.301;-2.148;-0.002;0.003;-0.001;
20190925_001748;0.232;9.488;-2.085;-0.000;0.002;-0.002;
20190925_001748;0.237;9.474;-2.205;0.001;0.003;0.000;
20190925_001748;0.259;9.527;-2.184;-0.001;0.003;0.001;
20190925_001748;0.261;9.524;-2.114;0.001;0.004;0.000;
20190925_001748;0.273;9.412;-2.145;-0.000;0.003;0.003;
20190925_001748;0.280;9.433;-2.255;0.001;0.003;0.001;
20190925_001749;0.314;9.438;-2.102;-0.001;0.002;0.001;
20190925_001749;0.354;9.594;-2.172;0.001;0.001;0.000;
20190925_001749;0.304;9.495;-2.212;0.001;0.001;-0.001;
20190925_001749;0.285;9.457;-2.097;-0.001;0.002;-0.001;
20190925_001749;0.314;9.416;-2.073;0.001;0.003;0.001;
20190925_001749;0.215;9.538;-2.186;-0.002;0.002;-0.001;
20190925_001749;0.120;9.488;-2.100;0.001;0.003;0.001;
20190925_001749;0.204;9.527;-2.119;-0.000;0.003;0.005;
20190925_001749;0.215;9.474;-2.128;-0.002;0.003;0.004;
20190925_001750;0.232;9.503;-2.066;-0.000;0.003;0.003;
20190925_001750;0.290;9.491;-2.140;-0.002;0.004;0.004;
20190925_001750;0.326;9.510;-2.107;-0.000;0.003;0.004;
20190925_001750;0.412;9.436;-2.097;-0.001;0.003;0.004;
20190925_001750;0.488;9.395;-2.176;-0.001;0.003;0.003;
20190925_001750;0.488;9.443;-2.054;-0.000;0.001;-0.002;
20190925_001750;0.373;9.400;-2.047;-0.001;0.002;-0.002;
20190925_001750;0.412;9.464;-2.188;0.002;0.002;-0.003;
20190925_001750;0.383;9.440;-2.018;-0.000;0.003;-0.002;
20190925_001750;0.290;9.505;-2.145;-0.000;0.003;-0.004;
20190925_001751;0.263;9.574;-2.040;-0.002;0.002;-0.004;
20190925_001751;0.290;9.601;-2.124;-0.002;0.003;-0.003;
20190925_001751;0.278;9.469;-2.042;-0.004;0.002;-0.004;
20190925_001751;0.225;9.450;-2.078;0.002;0.002;-0.004;
20190925_001751;0.213;9.483;-2.112;0.001;0.002;-0.004;
20190925_001751;0.369;9.505;-2.014;-0.004;-0.000;-0.004;
20190925_001751;0.378;9.531;-2.083;-0.001;0.002;-0.002;
20190925_001751;0.326;9.517;-2.037;-0.001;0.001;-0.004;
20190925_001751;0.163;9.500;-2.131;0.002;0.002;-0.001;
20190925_001752;0.144;9.493;-2.045;-0.000;0.002;-0.003;
20190925_001752;0.254;9.404;-1.968;-0.004;0.002;-0.001;
20190925_001752;0.285;9.416;-2.078;-0.002;0.002;0.000;
20190925_001752;0.168;9.369;-2.054;0.003;0.002;-0.001;
20190925_001752;0.247;9.503;-2.083;0.005;0.001;-0.002;
20190925_001752;0.417;9.404;-2.016;0.002;0.002;0.000;
20190925_001752;0.390;9.538;-2.049;0.001;0.002;0.000;
20190925_001752;0.378;9.529;-2.222;0.002;0.001;-0.002;
20190925_001752;0.261;9.524;-2.205;0.002;0.001;-0.005;
20190925_001752;0.256;9.505;-2.112;0.001;0.002;-0.005;
20190925_001753;0.350;9.455;-2.004;-0.001;0.003;-0.002;
20190925_001753;0.172;9.416;-2.174;-0.000;0.002;-0.002;
20190925_001753;0.151;9.603;-2.179;0.002;0.003;-0.002;
20190925_001753;0.098;9.500;-2.217;-0.000;0.002;-0.003;
20190925_001753;0.280;9.531;-2.219;-0.000;0.002;0.000;
20190925_001753;0.342;9.474;-2.298;-0.007;-0.000;0.000;
20190925_001753;0.249;9.529;-2.164;-0.004;0.002;-0.001;
20190925_001753;0.189;9.481;-2.035;-0.059;0.005;0.001;
20190925_001753;0.275;9.369;-1.958;-0.021;0.006;0.000;
20190925_001754;0.302;9.440;-2.107;0.011;0.005;-0.003;
20190925_001754;0.266;9.402;-2.083;-0.026;0.007;-0.001;
20190925_001754;0.218;9.649;-1.942;-0.041;0.003;-0.003;
20190925_001754;0.220;9.814;-1.860;-0.051;0.002;-0.003;
20190925_001754;0.244;9.507;-1.918;-0.013;0.002;-0.002;
20190925_001754;0.757;10.635;-2.143;-0.203;-0.025;-0.013;
20190925_001754;0.318;9.752;-1.820;-0.010;0.005;-0.006;
20190925_001754;0.223;9.440;-1.702;-0.049;0.001;-0.003;
20190925_001754;1.772;16.884;-2.406;0.259;-0.227;1.165;
20190925_001754;1.257;9.723;-1.295;-0.088;0.016;0.007;
20190925_001755;1.204;9.213;-2.057;0.264;-0.029;0.008;
20190925_001755;1.178;9.330;-1.858;0.036;-0.003;0.000;
20190925_001755;1.147;9.531;-1.901;0.008;0.006;0.000;
20190925_001755;1.185;9.527;-2.191;0.010;0.003;-0.006;
20190925_001755;1.188;9.282;-2.023;0.005;0.005;0.001;
20190925_001755;1.073;9.172;-1.867;-0.024;0.007;-0.164;
20190925_001755;0.792;9.656;-1.774;0.036;-0.002;-0.019;
20190925_001755;0.792;9.744;-2.049;0.002;0.005;0.005;
20190925_001755;0.931;9.613;-2.145;0.009;0.003;0.004;
20190925_001756;0.881;9.397;-1.997;-0.025;0.007;0.003;
20190925_001756;0.812;9.548;-1.913;-0.008;-0.005;-0.169;
20190925_001756;0.704;9.498;-1.750;-0.025;0.005;-0.116;
20190925_001756;0.464;9.883;-1.793;-0.018;-0.000;-0.412;
20190925_001756;0.314;9.596;-1.891;-0.001;-0.001;0.003;
20190925_001756;0.455;9.558;-1.990;0.015;-0.000;0.003;
20190925_001756;0.539;9.443;-1.841;0.007;-0.000;0.004;
20190925_001756;0.318;9.744;-1.688;0.022;-0.006;0.000;
20190925_001756;0.405;9.469;-2.045;0.019;-0.001;0.006;
20190925_001757;0.603;9.474;-1.741;0.008;-0.000;0.004;
20190925_001757;0.591;9.476;-1.877;-0.000;0.001;-0.003;
20190925_001757;0.352;9.692;-1.906;0.002;-0.003;-0.007;
20190925_001757;0.488;9.747;-1.867;0.005;-0.000;-0.007;
20190925_001757;0.606;9.572;-1.808;-0.004;0.002;-0.006;
20190925_001757;0.417;9.491;-1.824;-0.000;0.002;-0.003;
20190925_001757;0.256;9.455;-1.937;0.003;-0.000;-0.006;
20190925_001757;0.254;9.414;-1.671;-0.006;-0.001;-0.007;
20190925_001757;0.381;9.342;-1.879;0.003;-0.000;-0.002;
20190925_001757;0.175;9.443;-1.908;0.001;-0.001;-0.002;
20190925_001758;0.144;9.474;-1.923;0.002;-0.005;-0.004;
20190925_001758;0.189;9.682;-1.731;0.003;-0.005;-0.004;
20190925_001758;0.364;9.699;-1.841;-0.000;-0.005;-0.001;
20190925_001758;0.213;9.737;-1.578;-0.001;-0.009;-0.001;
20190925_001758;-0.010;9.828;-1.609;-0.000;-0.012;-0.006;
20190925_001758;0.263;9.400;-1.425;-0.008;-0.010;-0.002;
20190925_001758;0.527;9.313;-1.556;-0.001;-0.010;0.005;
20190925_001758;0.247;9.546;-1.788;0.001;-0.011;0.001;
20190925_001758;0.299;9.210;-2.018;-0.007;-0.009;0.006;
20190925_001759;0.613;9.187;-1.707;-0.001;-0.009;0.006;
20190925_001759;0.678;9.404;-1.757;0.005;-0.008;0.006;
20190925_001759;0.469;9.440;-2.155;0.005;-0.006;0.003;
20190925_001759;0.484;9.603;-2.188;0.007;-0.006;-0.004;
20190925_001759;0.575;9.735;-2.195;-0.000;-0.005;-0.006;
20190925_001759;0.570;9.428;-1.757;-0.004;-0.007;-0.007;
20190925_001759;0.481;9.486;-2.076;0.004;-0.007;-0.008;
20190925_001759;0.306;9.481;-2.069;-0.000;-0.008;-0.011;
20190925_001759;0.285;9.591;-1.877;0.002;-0.006;-0.011;
20190925_001800;0.309;9.591;-1.860;-0.000;-0.005;-0.007;
20190925_001800;0.213;9.682;-1.635;0.004;-0.005;-0.003;
20190925_001800;0.050;9.809;-1.453;0.003;-0.003;-0.001;
20190925_001800;-0.038;9.675;-1.477;-0.000;-0.009;0.000;
20190925_001800;-0.017;9.555;-1.453;0.001;-0.009;0.004;
20190925_001800;0.206;9.517;-1.302;0.002;-0.009;0.009;
20190925_001800;0.311;9.416;-1.554;0.004;-0.008;0.011;
20190925_001800;0.414;9.567;-1.786;0.005;-0.007;0.009;
20190925_001800;0.383;9.570;-1.688;0.005;-0.007;0.009;
20190925_001800;0.503;9.687;-1.578;0.004;-0.007;0.006;
20190925_001801;0.646;9.831;-1.851;0.005;-0.005;0.005;
20190925_001801;0.637;9.481;-2.002;-0.005;-0.003;0.003;
20190925_001801;0.512;9.503;-1.736;-0.005;-0.005;-0.004;
20190925_001801;0.292;9.629;-1.504;-0.001;-0.007;-0.001;
20190925_001801;0.340;9.515;-1.884;-0.001;-0.008;-0.004;
20190925_001801;0.450;9.555;-1.848;-0.006;-0.005;-0.004;
20190925_001801;0.306;9.436;-1.638;-0.004;-0.006;0.000;
20190925_001801;0.175;9.342;-1.741;0.001;-0.007;-0.002;
20190925_001801;0.419;9.536;-1.958;0.005;-0.005;0.001;
20190925_001802;0.400;9.531;-1.774;0.005;-0.005;0.005;
20190925_001802;0.287;9.515;-1.645;-0.002;-0.008;0.001;
20190925_001802;0.278;9.708;-1.836;0.003;-0.005;0.004;
20190925_001802;0.400;9.732;-1.932;-0.000;-0.005;0.004;
20190925_001802;0.445;9.711;-1.982;-0.004;-0.006;0.005;
20190925_001802;0.445;9.598;-1.767;-0.005;-0.007;0.004;
20190925_001802;0.397;9.663;-1.899;-0.005;-0.006;0.003;
20190925_001802;0.294;9.491;-1.827;-0.006;-0.003;0.003;
20190925_001802;0.426;9.424;-1.889;-0.009;-0.003;-0.002;
20190925_001802;0.450;9.555;-1.659;-0.005;-0.005;0.000;
20190925_001803;0.383;9.407;-1.920;-0.009;-0.002;0.000;
20190925_001803;0.500;9.239;-1.834;-0.043;-0.007;-0.006;
20190925_001803;0.500;9.349;-1.561;-0.002;-0.003;0.001;
20190925_001803;0.359;9.333;-1.590;-0.001;-0.000;0.003;
20190925_001803;0.347;9.620;-1.599;-0.006;-0.000;0.001;
20190925_001803;0.376;9.764;-1.597;-0.014;-0.003;0.001;
20190925_001803;0.321;9.596;-1.377;-0.002;-0.003;-0.001;
20190925_001803;0.227;9.629;-1.417;-0.019;-0.012;-0.003;
20190925_001803;0.381;9.507;-1.530;-0.040;-0.005;-0.003;
20190925_001804;0.438;9.615;-1.417;-0.055;-0.017;-0.004;
20190925_001804;0.450;9.582;-1.393;-0.033;-0.022;-0.002;
20190925_001804;0.247;9.704;-1.463;0.005;0.001;-0.004;
20190925_001804;0.357;9.574;-1.513;-0.055;-0.033;-0.007;
20190925_001804;0.426;9.596;-1.293;-0.015;-0.010;-0.012;
20190925_001804;0.038;9.682;-1.635;0.018;0.005;0.039;
20190925_001804;0.132;9.670;-1.372;0.008;0.001;0.007;
20190925_001804;0.215;9.651;-1.312;-0.001;-0.006;0.004;
20190925_001804;0.081;9.742;-1.788;0.119;0.026;0.006;
20190925_001805;0.273;9.366;-1.494;0.015;0.003;0.000;
20190925_001805;0.479;9.443;-1.279;-0.050;-0.012;0.001;
20190925_001805;0.426;9.601;-1.386;-0.022;0.002;0.200;
20190925_001805;0.261;9.634;-1.286;-0.016;-0.001;0.000;
20190925_001805;0.369;9.677;-1.207;-0.034;-0.011;0.000;
20190925_001805;0.311;9.668;-1.286;0.005;-0.000;-0.004;
20190925_001805;0.182;9.450;-0.994;0.007;0.002;-0.002;
20190925_001805;0.211;9.481;-1.274;-0.001;-0.000;-0.002;
20190925_001805;0.235;9.366;-1.393;0.075;0.010;0.005;
20190925_001806;0.314;9.337;-1.614;0.053;0.009;0.006;
20190925_001806;0.366;9.512;-1.671;-0.005;0.005;0.006;
20190925_001806;0.359;9.553;-1.671;0.006;0.003;0.005;
20190925_001806;0.373;9.811;-1.571;0.005;0.002;0.006;
20190925_001806;0.345;10.089;-1.518;0.001;0.002;0.003;
20190925_001806;0.275;9.778;-1.458;-0.010;-0.000;0.003;
20190925_001806;0.242;9.694;-1.329;-0.011;-0.000;0.004;
20190925_001806;0.239;9.457;-1.338;-0.008;-0.001;0.005;
20190925_001806;0.256;9.256;-1.329;-0.002;-0.000;0.006;
20190925_001806;0.230;9.285;-1.207;-0.001;-0.003;0.005;
20190925_001807;0.213;9.301;-1.312;0.002;-0.002;0.007;
20190925_001807;0.287;9.179;-1.446;0.005;-0.001;0.010;
20190925_001807;0.414;9.404;-1.537;0.010;-0.001;0.010;
20190925_001807;0.455;9.725;-1.686;0.012;-0.000;0.009;
20190925_001807;0.441;9.843;-1.815;0.008;0.001;0.010;
20190925_001807;0.572;9.969;-1.741;0.005;0.001;0.006;
20190925_001807;0.603;9.747;-1.793;-0.002;-0.000;0.003;
20190925_001807;0.589;9.395;-1.796;-0.007;0.002;0.001;
20190925_001807;0.589;9.378;-1.707;-0.006;0.002;0.000;
20190925_001807;0.493;9.388;-1.719;-0.001;0.002;-0.004;
20190925_001808;0.539;9.380;-1.757;-0.005;0.002;-0.005;
20190925_001808;0.484;9.414;-1.774;0.001;0.001;-0.006;
20190925_001808;0.306;9.340;-1.757;0.002;-0.000;-0.006;
20190925_001808;0.304;9.378;-1.803;0.004;0.001;-0.006;
20190925_001808;0.393;9.536;-1.726;0.005;0.002;-0.006;
20190925_001808;0.316;9.646;-1.800;0.005;0.002;-0.004;
20190925_001808;0.254;9.620;-1.906;0.004;0.001;-0.005;
20190925_001808;0.280;9.519;-1.858;0.004;0.002;-0.003;
20190925_001808;0.352;9.474;-1.777;0.003;0.001;0.000;
20190925_001809;0.244;9.579;-1.774;0.002;0.002;0.000;
20190925_001809;0.280;9.723;-1.865;0.001;0.001;-0.002;
20190925_001809;0.283;9.534;-1.760;-0.004;0.001;-0.001;
20190925_001809;0.352;9.366;-1.724;-0.004;-0.000;-0.001;
20190925_001809;0.330;9.246;-1.844;0.003;-0.000;-0.001;
20190925_001809;0.297;9.448;-1.820;0.008;-0.000;-0.002;
20190925_001809;0.400;9.591;-1.860;0.004;0.001;0.000;
20190925_001809;0.340;9.560;-1.879;0.002;0.002;0.003;
20190925_001809;0.259;9.723;-1.707;0.003;-0.001;-0.001;
20190925_001810;0.371;9.986;-1.765;0.002;-0.000;0.004;
20190925_001810;0.378;9.843;-1.626;-0.001;-0.001;0.001;
20190925_001810;0.328;9.649;-1.657;-0.010;-0.000;0.003;
20190925_001810;0.237;9.641;-1.451;-0.008;-0.003;0.001;
20190925_001810;0.551;9.584;-1.365;-0.008;-0.002;-0.001;
20190925_001810;0.697;9.110;-1.396;-0.006;-0.001;-0.001;
20190925_001810;0.419;9.215;-1.511;0.003;-0.001;-0.002;
20190925_001810;0.342;9.278;-1.697;0.010;-0.003;-0.005;
20190925_001810;0.431;9.136;-1.676;0.006;-0.000;-0.005;
20190925_001811;0.532;9.313;-1.839;0.012;-0.000;-0.006;
20190925_001811;0.215;9.840;-1.932;0.015;-0.000;-0.004;
20190925_001811;0.326;9.881;-2.004;0.006;0.001;-0.004;
20190925_001811;0.407;10.087;-1.930;0.001;0.004;-0.001;
20190925_001811;0.237;9.835;-1.908;-0.006;0.003;-0.002;
20190925_001811;0.189;9.522;-1.870;-0.007;0.003;0.000;
20190925_001811;0.275;9.199;-1.829;-0.007;0.003;0.001;
20190925_001811;0.376;9.596;-1.839;-0.004;0.002;0.000;
20190925_001811;0.328;9.479;-1.788;-0.005;0.002;-0.001;
20190925_001811;0.266;9.443;-1.750;-0.004;0.001;0.000;
20190925_001812;0.199;9.380;-1.784;0.004;0.001;0.000;
20190925_001812;0.369;9.115;-1.767;0.001;0.002;0.001;
20190925_001812;0.467;9.261;-1.781;0.003;0.002;0.003;
20190925_001812;0.261;9.737;-1.860;0.008;0.001;0.004;
20190925_001812;0.170;9.799;-1.980;0.004;0.001;0.000;
20190925_001812;0.318;9.847;-2.061;-0.000;0.002;0.000;
20190925_001812;0.448;9.428;-1.966;-0.008;0.003;0.005;
20190925_001812;0.366;9.433;-2.014;-0.005;0.002;0.004;
20190925_001812;0.340;9.278;-1.884;-0.002;0.003;0.003;
20190925_001813;0.417;9.464;-2.059;-0.000;0.001;0.001;
20190925_001813;0.393;9.273;-1.954;-0.002;0.002;0.003;
20190925_001813;0.431;9.313;-1.951;0.003;0.001;0.000;
20190925_001813;0.476;9.787;-2.078;0.008;0.003;-0.001;
20190925_001813;0.318;9.869;-1.915;0.002;0.002;-0.003;
20190925_001813;0.335;9.512;-1.822;-0.009;0.001;-0.002;
20190925_001813;0.493;9.266;-1.824;-0.001;0.003;-0.001;
20190925_001813;0.287;9.546;-2.054;0.006;0.004;0.000;
20190925_001813;0.206;9.716;-2.014;-0.000;0.002;-0.003;
20190925_001813;0.388;9.450;-1.853;-0.006;0.002;0.004;
20190925_001814;0.359;9.316;-1.788;0.001;0.004;0.003;
20190925_001814;0.256;9.359;-1.829;0.002;0.002;-0.002;
20190925_001814;0.273;9.474;-1.963;-0.000;0.003;0.000;
20190925_001814;0.491;9.395;-1.903;0.001;0.002;0.001;
20190925_001814;0.362;9.455;-1.920;0.005;0.003;0.000;
20190925_001814;0.350;9.431;-2.004;0.004;0.003;-0.002;
20190925_001814;0.448;9.304;-1.961;0.002;0.003;0.001;
20190925_001814;0.314;9.436;-1.980;0.004;0.004;0.001;
20190925_001814;0.424;9.732;-2.004;0.006;0.003;0.000;
20190925_001815;0.335;9.713;-1.875;0.002;0.002;-0.003;
20190925_001815;0.448;9.661;-1.990;0.005;0.004;0.000;
20190925_001815;0.488;9.498;-1.863;-0.001;0.005;0.001;
20190925_001815;0.378;9.579;-2.028;-0.000;0.003;-0.002;
20190925_001815;0.318;9.620;-1.942;-0.006;0.002;-0.003;
20190925_001815;0.357;9.720;-1.961;-0.002;0.003;-0.001;
20190925_001815;0.359;9.476;-1.937;-0.005;0.004;-0.002;
20190925_001815;0.326;9.354;-1.793;-0.008;0.004;-0.002;
20190925_001815;0.419;9.414;-1.867;-0.002;0.005;-0.003;
20190925_001816;0.462;9.337;-1.937;-0.004;0.006;-0.003;
20190925_001816;0.364;9.129;-1.937;-0.002;0.004;-0.002;
20190925_001816;0.283;9.424;-1.927;0.007;0.003;-0.003;
20190925_001816;0.393;9.689;-1.855;0.001;0.004;-0.004;
20190925_001816;0.369;9.720;-2.133;-0.002;0.004;-0.003;
20190925_001816;0.160;9.682;-2.088;0.005;0.003;-0.004;
20190925_001816;0.330;9.773;-2.064;0.002;0.006;0.000;
20190925_001816;0.433;9.615;-2.088;-0.002;0.007;0.001;
20190925_001816;0.206;9.577;-1.848;-0.009;0.004;0.001;
20190925_001816;0.153;9.625;-2.023;0.005;0.003;-0.001;
20190925_001817;0.467;9.378;-1.817;-0.000;0.006;0.000;
20190925_001817;0.488;9.380;-2.006;-0.007;0.006;-0.001;
20190925_001817;0.338;9.251;-2.011;-0.004;0.003;0.000;
20190925_001817;0.321;9.313;-1.779;0.001;0.003;-0.003;
20190925_001817;0.488;9.479;-1.841;0.003;0.006;-0.002;
20190925_001817;0.407;9.560;-2.138;0.003;0.007;-0.003;
20190925_001817;0.275;9.582;-2.157;-0.000;0.003;-0.003;
20190925_001817;0.340;9.297;-1.829;-0.004;0.004;-0.004;
20190925_001817;0.467;9.311;-1.779;0.005;0.006;-0.002;
20190925_001818;0.225;9.646;-1.918;0.006;0.006;0.004;
20190925_001818;0.175;9.543;-2.152;0.003;0.004;-0.002;
20190925_001818;0.373;9.383;-2.078;-0.007;0.006;0.000;
20190925_001818;0.498;9.335;-1.817;-0.004;0.006;0.004;
20190925_001818;0.318;9.337;-1.992;0.003;0.005;0.000;
20190925_001818;0.227;9.828;-2.143;0.008;0.005;-0.004;
20190925_001818;0.326;9.838;-2.083;-0.009;0.005;-0.003;
20190925_001818;0.682;9.500;-1.860;-0.007;0.004;-0.003;
20190925_001818;0.457;9.273;-1.686;-0.001;0.005;0.000;
20190925_001819;0.053;9.622;-1.994;0.008;0.003;-0.008;
20190925_001819;0.409;9.740;-1.994;-0.000;0.007;-0.003;
20190925_001819;0.474;9.409;-1.693;-0.009;0.005;0.003;
20190925_001819;0.175;9.730;-1.721;0.003;0.003;-0.006;
20190925_001819;0.215;9.732;-2.107;0.006;0.004;-0.003;
20190925_001819;0.261;9.481;-1.882;-0.006;0.003;-0.002;
20190925_001819;0.285;9.467;-1.700;-0.006;-0.001;-0.004;
20190925_001819;0.189;9.589;-1.803;-0.000;0.001;-0.003;
20190925_001819;0.429;9.608;-2.184;-0.002;0.001;-0.004;
20190925_001819;0.359;9.029;-1.717;-0.013;0.001;-0.001;
20190925_001820;0.218;9.304;-1.422;-0.000;-0.001;-0.003;
20190925_001820;0.333;9.586;-2.069;0.014;0.003;-0.002;
20190925_001820;0.230;9.440;-2.284;-0.001;0.001;-0.003;
20190925_001820;0.151;9.639;-1.748;-0.001;-0.000;-0.002;
20190925_001820;0.393;9.407;-1.853;0.002;0.003;0.004;
20190925_001820;0.419;9.469;-2.298;0.003;0.003;0.001;
20190925_001820;0.156;9.874;-2.097;0.001;-0.000;-0.002;
20190925_001820;0.441;9.589;-1.729;-0.008;-0.000;-0.007;
20190925_001820;0.658;9.785;-2.116;-0.002;0.004;-0.001;
20190925_001821;0.069;9.323;-2.112;-0.001;0.001;-0.005;
20190925_001821;0.098;9.225;-1.678;-0.000;-0.002;-0.012;
20190925_001821;0.385;9.103;-1.765;0.006;0.004;-0.002;
20190925_001821;0.618;9.151;-1.753;-0.001;0.006;0.005;
20190925_001821;0.189;9.534;-1.966;0.007;0.003;0.004;
20190925_001821;0.048;9.680;-1.896;0.007;0.004;0.001;
20190925_001821;0.180;9.725;-2.243;0.001;0.003;-0.001;
20190925_001821;0.781;9.479;-1.851;-0.009;0.006;0.007;
20190925_001821;0.412;9.330;-1.908;-0.002;0.003;0.004;
20190925_001821;-0.055;9.946;-2.004;0.005;-0.000;-0.007;
20190925_001822;0.522;9.316;-2.069;-0.013;0.003;-0.005;
20190925_001822;0.781;8.748;-1.671;-0.009;0.005;0.004;
20190925_001822;0.290;9.160;-1.721;0.014;0.002;-0.008;
20190925_001822;0.218;9.776;-1.987;0.014;0.002;-0.006;
20190925_001822;0.318;9.838;-2.222;0.002;0.005;-0.002;
20190925_001822;0.520;9.234;-1.891;-0.000;0.005;0.003;
20190925_001822;0.055;9.325;-1.769;0.007;0.002;-0.004;
20190925_001822;0.026;9.598;-2.016;0.014;0.002;-0.004;
20190925_001822;0.373;9.802;-2.155;0.004;0.006;0.005;
20190925_001822;0.259;9.960;-2.009;-0.000;0.005;0.005;
20190925_001823;0.247;9.376;-1.944;-0.004;0.005;0.003;
20190925_001823;0.304;9.503;-1.822;0.003;0.003;0.001;
20190925_001823;0.177;9.507;-1.937;0.002;0.003;0.000;
20190925_001823;0.426;9.328;-1.982;-0.006;0.006;0.005;
20190925_001823;0.572;9.328;-1.911;-0.002;0.004;-0.001;
20190925_001823;0.582;9.124;-1.894;-0.002;0.004;0.003;
20190925_001823;0.113;9.459;-2.018;0.002;0.001;-0.001;
20190925_001823;0.017;9.907;-1.970;0.006;0.002;-0.007;
20190925_001823;0.086;9.728;-2.143;0.006;0.003;-0.001;
20190925_001824;0.563;9.651;-1.664;0.003;0.006;0.006;
20190925_001824;0.268;9.519;-1.755;0.005;0.005;0.007;
20190925_001824;0.043;9.694;-2.363;0.010;0.002;-0.001;
20190925_001824;0.350;9.273;-2.014;0.003;0.004;-0.003;
20190925_001824;0.558;9.325;-1.779;-0.005;0.004;0.003;
20190925_001824;0.632;9.594;-2.097;0.005;0.002;0.000;
20190925_001824;0.443;10.063;-2.382;0.006;0.002;-0.005;
20190925_001824;0.160;9.661;-1.621;-0.000;0.001;-0.009;
20190925_001824;0.364;9.574;-1.494;-0.005;-0.002;-0.008;
20190925_001825;0.524;9.239;-1.887;-0.002;0.004;-0.002;
20190925_001825;0.419;9.175;-2.231;0.010;0.006;-0.004;
20190925_001825;0.204;9.278;-2.002;0.007;0.001;-0.006;
20190925_001825;0.072;9.163;-2.100;-0.000;0.002;0.000;
20190925_001825;0.038;9.366;-1.803;0.004;0.004;0.000;
20190925_001825;0.117;9.445;-2.219;0.005;0.002;0.004;
20190925_001825;-0.026;9.740;-1.860;0.002;0.005;0.006;
20190925_001825;0.043;9.541;-1.923;0.005;0.003;0.001;
20190925_001825;0.227;9.610;-1.970;0.015;0.004;0.004;
20190925_001826;0.515;9.105;-1.599;0.004;0.004;0.001;
20190925_001826;0.371;9.479;-1.973;0.004;0.003;-0.001;
20190925_001826;0.242;9.759;-1.894;0.004;0.001;-0.004;
20190925_001826;0.484;9.766;-1.853;0.003;0.003;-0.005;
20190925_001826;0.505;9.778;-1.822;-0.008;0.003;-0.003;
20190925_001826;0.371;9.328;-2.073;-0.009;0.005;-0.001;
20190925_001826;0.302;9.541;-2.066;-0.000;0.007;-0.006;
20190925_001826;0.493;9.378;-1.810;-0.005;0.011;-0.002;
20190925_001826;0.529;9.029;-1.855;-0.005;0.016;0.003;
20190925_001826;0.316;9.038;-1.966;0.003;0.017;-0.002;
20190925_001827;0.395;9.203;-1.662;0.009;0.019;-0.003;
20190925_001827;0.405;9.498;-1.937;0.001;0.021;0.000;
20190925_001827;0.218;9.934;-2.241;0.009;0.022;-0.002;
20190925_001827;0.180;10.082;-2.143;0.012;0.023;-0.003;
20190925_001827;0.376;9.936;-2.186;-0.002;0.026;-0.001;
20190925_001827;0.309;9.606;-2.076;-0.005;0.024;-0.005;
20190925_001827;0.127;9.376;-1.946;-0.001;0.022;-0.007;
20190925_001827;0.160;9.369;-1.992;0.002;0.022;-0.011;
20190925_001827;0.168;9.361;-1.755;-0.011;0.023;-0.008;
20190925_001828;0.163;9.052;-2.011;-0.012;0.023;-0.006;
20190925_001828;0.127;9.318;-2.133;0.005;0.023;-0.006;
20190925_001828;0.141;9.675;-1.937;0.005;0.025;-0.001;
20190925_001828;0.244;9.907;-1.729;0.005;0.027;0.004;
20190925_001828;0.079;10.132;-2.205;0.011;0.032;0.006;
20190925_001828;0.175;9.735;-1.839;-0.000;0.031;-0.001;
20190925_001828;0.424;9.720;-1.848;-0.001;0.033;0.000;
20190925_001828;0.249;9.340;-1.875;-0.007;0.035;-0.001;
20190925_001828;0.381;9.565;-1.973;0.002;0.037;-0.007;
20190925_001828;0.266;9.699;-1.820;-0.009;0.039;-0.006;
20190925_001829;0.405;9.395;-1.583;-0.013;0.040;-0.008;
20190925_001829;0.352;9.366;-2.018;-0.007;0.043;-0.010;
20190925_001829;0.235;9.218;-1.999;0.005;0.046;-0.009;
20190925_001829;0.165;9.385;-1.738;0.001;0.046;-0.008;
20190925_001829;0.273;9.254;-1.860;0.008;0.052;-0.008;
20190925_001829;0.146;9.522;-1.980;0.008;0.054;-0.008;
20190925_001829;0.180;9.512;-1.875;0.005;0.056;-0.011;
20190925_001829;0.261;9.687;-1.949;0.006;0.058;-0.012;
20190925_001829;0.232;10.020;-1.829;0.001;0.065;-0.007;
20190925_001830;0.273;9.881;-2.184;-0.001;0.063;-0.010;
20190925_001830;-0.038;9.550;-2.040;-0.000;0.066;-0.009;
20190925_001830;-0.002;9.385;-1.899;-0.005;0.069;-0.016;
20190925_001830;0.304;9.349;-1.846;-0.006;0.072;-0.010;
20190925_001830;0.129;9.220;-2.004;-0.002;0.077;-0.009;
20190925_001830;-0.115;9.814;-1.741;0.002;0.075;-0.016;
20190925_001830;0.010;9.330;-1.781;-0.006;0.079;-0.012;
20190925_001830;0.134;9.546;-2.322;0.009;0.086;-0.009;
20190925_001830;-0.206;9.732;-1.985;0.010;0.086;-0.017;
20190925_001830;-0.134;9.902;-1.657;0.001;0.087;-0.017;
20190925_001831;-0.043;9.476;-1.741;-0.006;0.088;-0.017;
20190925_001831;-0.014;9.780;-1.901;-0.000;0.091;-0.014;
20190925_001831;0.002;9.479;-1.949;-0.005;0.093;-0.011;
20190925_001831;-0.002;9.582;-1.855;-0.006;0.097;-0.014;
20190925_001831;-0.177;9.493;-1.918;-0.002;0.096;-0.014;
20190925_001831;-0.086;9.491;-1.767;-0.000;0.098;-0.018;
20190925_001831;-0.110;9.421;-1.877;-0.000;0.100;-0.016;
20190925_001831;0.089;9.325;-1.824;0.001;0.102;-0.019;
20190925_001831;-0.048;9.663;-2.049;0.004;0.104;-0.013;
20190925_001832;-0.388;9.809;-2.184;0.002;0.105;-0.019;
20190925_001832;-0.340;9.646;-1.942;0.001;0.104;-0.016;
20190925_001832;-0.464;9.270;-1.925;0.002;0.105;-0.016;
20190925_001832;-0.129;9.256;-1.812;0.004;0.108;-0.016;
20190925_001832;-0.280;9.663;-2.030;0.004;0.109;-0.012;
20190925_001832;-0.278;9.831;-2.121;0.003;0.106;-0.018;
20190925_001832;-0.244;9.562;-2.260;0.002;0.108;-0.016;
20190925_001832;-0.340;9.400;-1.954;0.002;0.108;-0.017;
20190925_001832;-0.256;9.222;-1.796;0.004;0.108;-0.019;
20190925_001833;-0.342;9.708;-2.066;0.004;0.109;-0.016;
20190925_001833;-0.548;9.776;-1.911;-0.006;0.107;-0.021;
20190925_001833;-0.239;9.594;-1.946;0.002;0.108;-0.017;
20190925_001833;-0.357;9.232;-1.616;-0.000;0.110;-0.018;
20190925_001833;-0.271;9.256;-1.956;0.004;0.107;-0.020;
20190925_001833;-0.345;9.340;-2.028;0.006;0.110;-0.016;
20190925_001833;-0.316;9.888;-1.975;0.007;0.107;-0.021;
20190925_001833;-0.089;9.740;-2.083;-0.002;0.113;-0.014;
20190925_001833;-0.115;9.656;-2.133;0.001;0.110;-0.016;
20190925_001833;-0.230;9.572;-1.834;-0.004;0.112;-0.017;
20190925_001834;-0.565;9.421;-1.834;0.002;0.107;-0.018;
20190925_001834;-0.469;9.287;-2.028;0.004;0.112;-0.017;
20190925_001834;-0.421;9.179;-1.918;0.004;0.112;-0.012;
20190925_001834;-0.376;9.378;-1.867;0.008;0.108;-0.018;
20190925_001834;-0.249;9.627;-2.296;0.011;0.113;-0.014;
20190925_001834;-0.366;9.728;-2.203;0.004;0.110;-0.018;
20190925_001834;-0.354;9.962;-2.207;0.009;0.108;-0.023;
20190925_001834;-0.227;9.416;-2.035;-0.006;0.113;-0.020;
20190925_001834;-0.081;9.390;-2.095;-0.004;0.112;-0.023;
20190925_001835;-0.259;9.366;-1.918;-0.000;0.112;-0.021;
20190925_001835;-0.383;9.505;-1.932;0.001;0.112;-0.020;
20190925_001835;-0.409;9.704;-1.875;0.002;0.115;-0.018;
20190925_001835;-0.261;9.517;-2.162;-0.002;0.116;-0.012;
20190925_001835;-0.469;9.352;-2.136;-0.002;0.118;-0.013;
20190925_001835;-0.462;9.467;-1.870;0.007;0.118;-0.013;
20190925_001835;-0.330;9.627;-2.016;0.006;0.119;-0.013;
20190925_001835;-0.251;9.579;-2.205;0.003;0.121;-0.013;
20190925_001835;-0.393;9.436;-2.049;-0.001;0.120;-0.014;
20190925_001836;-0.254;9.251;-1.918;0.004;0.120;-0.017;
20190925_001836;-0.304;9.330;-1.839;0.003;0.119;-0.017;
20190925_001836;-0.347;9.373;-2.097;0.005;0.122;-0.016;
20190925_001836;-0.371;9.680;-2.109;0.003;0.119;-0.017;
20190925_001836;-0.390;9.826;-2.040;0.002;0.119;-0.019;
20190925_001836;-0.340;9.416;-1.956;-0.001;0.119;-0.019;
20190925_001836;-0.354;9.383;-2.073;-0.000;0.117;-0.018;
20190925_001836;-0.551;9.299;-2.023;0.005;0.117;-0.022;
20190925_001836;-0.393;9.328;-1.733;0.002;0.114;-0.021;
20190925_001837;-0.433;9.474;-1.987;0.006;0.117;-0.019;
20190925_001837;-0.512;9.618;-2.078;0.001;0.116;-0.019;
20190925_001837;-0.419;9.565;-1.939;0.003;0.117;-0.017;
20190925_001837;-0.369;9.826;-2.049;0.007;0.117;-0.014;
20190925_001837;-0.405;9.651;-2.064;0.005;0.116;-0.014;
20190925_001837;-0.426;9.476;-2.040;0.005;0.116;-0.011;
20190925_001837;-0.534;9.395;-1.937;-0.002;0.115;-0.016;
20190925_001837;-0.481;9.304;-1.884;-0.000;0.112;-0.017;
20190925_001837;-0.366;9.251;-1.999;0.002;0.110;-0.019;
20190925_001837;-0.251;9.685;-2.148;0.003;0.109;-0.022;
20190925_001838;-0.278;9.510;-1.990;-0.004;0.108;-0.024;
20190925_001838;-0.180;9.278;-1.975;-0.000;0.107;-0.024;
20190925_001838;-0.263;9.503;-1.930;-0.000;0.107;-0.019;
20190925_001838;-0.419;9.668;-1.956;0.007;0.108;-0.021;
20190925_001838;-0.378;9.795;-2.061;0.004;0.113;-0.014;
20190925_001838;-0.433;9.689;-2.078;-0.000;0.113;-0.014;
20190925_001838;-0.294;9.459;-2.069;-0.000;0.115;-0.016;
20190925_001838;-0.316;9.103;-1.992;-0.007;0.118;-0.013;
20190925_001839;-0.306;9.404;-1.908;0.003;0.116;-0.017;
20190925_001839;-0.227;9.768;-2.164;0.002;0.116;-0.012;
20190925_001839;-0.565;9.610;-2.255;0.002;0.113;-0.016;
20190925_001839;-0.484;9.656;-1.858;-0.004;0.110;-0.019;
20190925_001839;-0.457;9.342;-1.841;-0.000;0.107;-0.016;
20190925_001839;-0.476;9.428;-2.136;0.003;0.107;-0.018;
20190925_001839;-0.646;9.517;-2.085;0.001;0.103;-0.022;
20190925_001839;-0.472;9.546;-1.860;-0.002;0.103;-0.020;
20190925_001839;-0.462;9.309;-2.081;0.002;0.101;-0.017;
20190925_001839;-0.510;9.301;-1.657;-0.000;0.095;-0.014;
20190925_001840;-0.740;9.550;-1.997;0.021;0.100;-0.008;
20190925_001840;-0.754;9.598;-2.014;0.004;0.089;-0.011;
20190925_001840;-0.340;9.910;-2.040;0.004;0.089;-0.006;
20190925_001840;-0.486;9.663;-1.961;0.003;0.088;-0.007;
20190925_001840;-0.522;9.503;-1.918;-0.007;0.084;-0.018;
20190925_001840;-0.139;9.380;-1.887;-0.002;0.083;-0.012;
20190925_001840;-0.168;9.476;-1.803;0.005;0.082;-0.012;
20190925_001840;-0.184;9.637;-2.069;0.008;0.080;-0.012;
20190925_001840;-0.306;9.589;-1.824;-0.002;0.077;-0.007;
20190925_001841;-0.520;9.553;-1.906;0.003;0.073;-0.012;
20190925_001841;-0.309;9.275;-1.946;0.002;0.073;-0.011;
20190925_001841;-0.263;9.409;-1.985;0.004;0.072;-0.009;
20190925_001841;-0.168;9.574;-2.083;0.005;0.071;-0.011;
20190925_001841;-0.266;9.651;-1.920;-0.005;0.070;-0.006;
20190925_001841;-0.462;9.582;-1.855;0.001;0.067;-0.009;
20190925_001841;-0.347;9.572;-2.037;0.003;0.064;-0.005;
20190925_001841;-0.412;9.515;-1.899;0.001;0.061;-0.008;
20190925_001841;-0.215;9.321;-1.844;0.004;0.061;-0.007;
20190925_001841;-0.168;9.287;-1.949;0.003;0.058;-0.003;
20190925_001842;-0.378;9.392;-2.057;0.010;0.054;-0.011;
20190925_001842;-0.254;9.524;-1.750;-0.005;0.051;-0.012;
20190925_001842;0.110;9.538;-2.128;0.009;0.052;-0.008;
20190925_001842;-0.002;9.634;-2.061;0.007;0.048;-0.009;
20190925_001842;-0.299;9.797;-1.638;0.004;0.044;-0.010;
20190925_001842;-0.235;10.060;-1.812;-0.000;0.043;-0.008;
20190925_001842;-0.019;9.486;-2.354;-0.004;0.044;-0.004;
20190925_001842;-0.134;9.534;-1.992;0.005;0.044;-0.005;
20190925_001842;-0.187;9.371;-1.669;-0.004;0.039;-0.008;
20190925_001843;-0.146;9.438;-1.709;-0.005;0.041;-0.007;
20190925_001843;-0.002;9.371;-2.160;0.003;0.043;-0.006;
20190925_001843;0.160;9.677;-1.863;0.009;0.042;-0.007;
20190925_001843;-0.062;9.244;-1.961;-0.007;0.039;-0.008;
20190925_001843;0.148;9.084;-2.076;0.006;0.039;-0.008;
20190925_001843;-0.141;9.651;-1.882;0.004;0.035;-0.009;
20190925_001843;0.105;9.493;-1.884;0.009;0.040;-0.006;
20190925_001843;0.038;9.773;-2.042;0.003;0.037;-0.006;
20190925_001843;0.048;9.867;-2.145;-0.000;0.037;-0.005;
20190925_001843;-0.050;9.448;-2.097;-0.000;0.038;-0.002;
20190925_001844;-0.129;9.515;-1.805;-0.007;0.033;-0.004;
20190925_001844;-0.139;9.342;-1.556;-0.009;0.034;-0.001;
20190925_001844;0.077;9.110;-2.363;-0.004;0.033;-0.003;
20190925_001844;0.103;9.110;-2.093;0.011;0.032;-0.003;
20190925_001844;-0.091;9.752;-1.683;0.008;0.026;-0.009;
20190925_001844;0.055;9.548;-1.844;-0.002;0.025;-0.008;
20190925_001844;0.187;9.462;-1.827;0.001;0.023;-0.004;
20190925_001844;0.072;9.515;-2.035;0.008;0.022;-0.005;
20190925_001844;-0.079;9.675;-2.157;0.005;0.024;-0.004;
20190925_001845;0.038;9.924;-2.107;0.001;0.021;-0.002;
20190925_001845;-0.010;9.534;-1.858;-0.005;0.021;-0.003;
20190925_001845;0.230;9.251;-1.896;-0.008;0.022;-0.004;
20190925_001845;0.239;9.285;-1.985;0.001;0.021;0.001;
20190925_001845;-0.084;9.560;-1.939;0.003;0.017;-0.007;
20190925_001845;0.129;9.639;-2.016;0.002;0.021;-0.004;
20190925_001845;0.350;9.325;-1.762;-0.005;0.021;0.000;
20190925_001845;0.400;9.234;-2.045;0.003;0.020;0.003;
20190925_001845;-0.215;9.443;-1.832;-0.002;0.016;-0.001;
20190925_001845;-0.299;9.845;-2.083;0.009;0.015;-0.003;
20190925_001846;0.223;9.845;-2.152;0.006;0.017;-0.004;
20190925_001846;0.551;9.682;-1.769;-0.009;0.021;0.005;
20190925_001846;0.192;9.400;-2.169;-0.008;0.020;0.006;
20190925_001846;-0.242;9.591;-1.674;-0.002;0.014;-0.003;
20190925_001846;0.117;9.290;-1.913;-0.000;0.015;-0.003;
20190925_001846;0.527;9.112;-1.992;-0.005;0.018;0.001;
20190925_001846;0.450;9.354;-1.877;-0.002;0.018;0.004;
20190925_001846;0.156;9.601;-1.937;0.008;0.015;-0.002;
20190925_001846;0.045;9.577;-1.671;0.005;0.014;0.000;
20190925_001847;0.074;9.711;-2.119;0.016;0.015;-0.005;
20190925_001847;0.225;9.622;-1.887;-0.002;0.016;0.001;
20190925_001847;0.433;9.541;-1.714;-0.004;0.015;0.003;
20190925_001847;0.297;9.488;-2.069;0.001;0.016;0.004;
20190925_001847;0.089;9.668;-2.037;0.004;0.012;-0.003;
20190925_001847;0.486;9.414;-1.800;-0.010;0.012;-0.001;
20190925_001847;0.579;9.553;-2.160;-0.001;0.015;0.004;
20190925_001847;0.273;9.376;-2.219;0.006;0.012;-0.001;
20190925_001847;0.089;9.361;-1.975;-0.002;0.009;-0.008;
20190925_001848;0.378;9.495;-1.808;0.006;0.012;-0.003;
20190925_001848;0.570;9.541;-1.994;-0.000;0.014;0.005;
20190925_001848;0.065;9.874;-2.191;0.011;0.010;-0.005;
20190925_001848;0.223;9.629;-2.073;-0.005;0.011;-0.004;
20190925_001848;0.522;9.199;-1.810;-0.004;0.012;0.001;
20190925_001848;0.057;9.187;-1.927;-0.007;0.010;-0.002;
20190925_001848;0.091;9.536;-2.167;0.003;0.009;-0.004;
20190925_001848;0.381;9.426;-2.030;0.006;0.010;-0.001;
20190925_001848;0.321;9.541;-1.891;-0.001;0.007;-0.001;
20190925_001848;0.196;9.795;-1.803;-0.000;0.006;-0.002;
20190925_001849;0.278;9.668;-1.997;0.004;0.007;0.000;
20190925_001849;0.263;9.479;-2.195;0.006;0.005;-0.001;
20190925_001849;0.244;9.459;-1.978;-0.000;0.003;-0.002;
20190925_001849;0.342;9.517;-1.829;-0.000;0.003;-0.002;
20190925_001849;0.517;9.570;-1.978;-0.001;0.003;0.001;
20190925_001849;0.069;9.843;-1.855;-0.002;0.001;-0.003;
20190925_001849;0.273;9.742;-1.954;-0.001;0.001;-0.004;
20190925_001849;0.611;9.275;-1.961;-0.006;0.004;0.004;
20190925_001849;0.306;9.036;-1.903;-0.010;0.003;0.005;
20190925_001850;0.208;9.373;-1.982;0.005;-0.001;-0.003;
20190925_001850;0.328;9.263;-1.901;0.002;0.002;-0.004;
20190925_001850;0.848;9.388;-1.942;0.001;0.005;0.003;
20190925_001850;0.548;9.488;-2.061;0.008;0.005;0.008;
20190925_001850;-0.115;9.756;-1.918;0.006;-0.001;-0.003;
20190925_001850;0.177;9.656;-2.109;0.002;0.003;-0.003;
20190925_001850;0.675;9.299;-2.033;-0.004;0.005;0.006;
20190925_001850;0.371;9.471;-1.695;-0.004;0.003;-0.002;
20190925_001850;0.103;9.668;-2.016;-0.001;0.001;-0.002;
20190925_001851;0.273;9.548;-2.239;-0.001;0.003;-0.004;
20190925_001851;0.479;9.234;-1.985;-0.010;0.004;-0.001;
20190925_001851;0.424;9.187;-1.946;-0.001;0.001;-0.001;
20190925_001851;0.306;9.354;-1.882;0.005;0.002;-0.004;
20190925_001851;0.395;9.218;-1.923;0.002;0.004;0.000;
20190925_001851;0.359;9.237;-1.908;0.007;0.003;-0.001;
20190925_001851;0.184;9.979;-1.894;0.004;-0.000;-0.005;
20190925_001851;0.498;9.881;-2.253;-0.004;0.004;0.000;
20190925_001851;0.622;9.517;-2.631;0.003;0.006;0.005;
20190925_001851;0.117;9.529;-2.157;-0.000;0.001;0.000;
20190925_001852;0.017;9.543;-1.216;-0.009;-0.001;-0.005;
20190925_001852;0.579;9.529;-2.224;-0.009;0.006;0.006;
20190925_001852;0.601;9.213;-2.198;0.004;0.005;0.004;
20190925_001852;0.175;9.682;-1.860;0.006;0.002;-0.002;
20190925_001852;0.141;9.562;-1.767;0.010;0.003;-0.005;
20190925_001852;0.591;9.799;-2.160;0.009;0.006;-0.002;
20190925_001852;0.620;9.543;-2.097;0.005;0.005;0.001;
20190925_001852;0.170;9.883;-1.719;0.002;0.002;-0.003;
20190925_001852;0.057;9.706;-1.846;-0.001;0.003;-0.002;
20190925_001852;0.491;9.505;-2.167;-0.002;0.006;0.003;
20190925_001853;0.464;9.292;-1.999;-0.006;0.004;0.001;
20190925_001853;0.192;9.697;-1.733;0.002;0.004;-0.002;
20190925_001853;0.414;9.333;-1.894;-0.004;0.003;-0.001;
20190925_001853;0.582;9.246;-2.023;0.004;0.004;0.000;
20190925_001853;0.395;9.182;-2.184;0.003;0.006;-0.002;
20190925_001853;0.223;9.340;-1.829;0.005;0.003;-0.005;
20190925_001853;0.412;9.922;-1.707;0.008;0.003;-0.005;
20190925_001853;0.500;10.113;-2.334;0.005;0.006;0.000;
20190925_001853;0.261;9.792;-2.224;0.001;0.004;-0.005;
20190925_001854;0.333;9.673;-1.702;-0.007;0.006;-0.001;
20190925_001854;0.347;9.433;-2.083;-0.006;0.004;0.000;
20190925_001854;0.261;9.177;-1.681;-0.008;0.005;0.000;
20190925_001854;0.500;9.297;-1.621;-0.000;0.005;-0.001;
20190925_001854;0.424;9.395;-1.796;0.005;0.004;-0.001;
20190925_001854;0.184;9.486;-2.061;0.009;0.006;-0.003;
20190925_001854;0.414;9.606;-2.157;0.012;0.004;-0.003;
20190925_001854;0.441;9.431;-1.741;0.007;0.004;-0.004;
20190925_001854;0.297;9.689;-1.788;0.008;0.003;-0.002;
20190925_001855;0.244;9.864;-2.097;0.007;0.003;-0.004;
20190925_001855;0.321;9.857;-2.105;-0.002;0.004;-0.004;
20190925_001855;0.385;9.543;-1.951;-0.009;0.004;-0.003;
20190925_001855;0.227;9.495;-1.853;-0.008;0.003;-0.002;
20190925_001855;0.285;9.301;-1.767;-0.005;0.001;-0.002;
20190925_001855;0.232;9.270;-1.762;-0.006;0.001;-0.002;
20190925_001855;0.204;9.273;-1.791;0.003;0.003;0.000;
20190925_001855;0.345;9.249;-1.901;0.004;0.001;0.001;
20190925_001855;0.251;9.661;-1.982;0.005;0.001;0.001;
20190925_001855;0.302;9.366;-1.518;0.006;-0.000;-0.004;
20190925_001856;0.354;9.313;-1.262;-0.007;-0.003;-0.005;
20190925_001856;0.441;9.146;-1.647;-0.002;-0.001;-0.003;
20190925_001856;0.498;9.254;-1.944;-0.001;-0.001;-0.003;
20190925_001856;0.493;9.694;-2.306;0.008;-0.001;-0.007;
20190925_001856;0.405;9.723;-1.812;-0.001;-0.002;-0.008;
20190925_001856;0.376;9.378;-1.772;-0.007;-0.001;-0.004;
20190925_001856;0.261;9.340;-1.666;-0.009;-0.003;-0.004;
20190925_001856;0.273;9.261;-1.848;0.002;-0.001;-0.001;
20190925_001856;0.299;9.723;-2.128;0.006;-0.001;0.004;
20190925_001857;0.223;9.792;-2.102;0.002;0.001;0.008;
20190925_001857;0.151;9.651;-1.841;-0.006;-0.002;0.005;
20190925_001857;0.484;9.431;-1.884;-0.006;0.001;0.004;
20190925_001857;0.539;9.184;-1.884;-0.002;-0.000;0.004;
20190925_001857;0.462;9.304;-1.992;0.001;-0.001;0.000;
20190925_001857;0.371;9.481;-1.860;0.003;-0.005;-0.003;
20190925_001857;0.476;9.689;-1.867;0.005;-0.003;-0.007;
20190925_001857;0.613;9.651;-2.016;0.002;-0.002;-0.008;
20190925_001857;0.347;9.610;-1.968;-0.000;-0.002;-0.005;
20190925_001858;0.395;9.641;-1.994;0.001;-0.001;-0.004;
20190925_001858;0.299;9.682;-1.906;-0.000;-0.002;-0.004;
20190925_001858;0.242;9.433;-1.781;-0.000;-0.002;-0.002;
20190925_001858;0.168;9.488;-2.066;0.004;-0.001;0.001;
20190925_001858;0.084;9.459;-1.930;-0.001;-0.000;0.001;
20190925_001858;0.345;9.471;-1.836;-0.004;-0.000;-0.001;
20190925_001858;0.330;9.457;-1.932;0.006;-0.001;0.003;
20190925_001858;0.187;9.498;-1.992;0.007;-0.002;-0.004;
20190925_001858;0.433;9.591;-2.025;0.003;-0.001;-0.004;
20190925_001858;0.532;9.479;-1.784;-0.002;-0.002;-0.003;
20190925_001859;0.436;9.685;-2.016;0.003;-0.000;-0.001;
20190925_001859;0.338;9.661;-2.078;0.003;-0.000;0.004;
20190925_001859;0.108;9.486;-1.832;-0.005;-0.001;0.001;
20190925_001859;0.388;9.194;-1.891;-0.001;-0.002;0.001;
20190925_001859;0.371;9.306;-1.827;0.003;-0.001;0.003;
20190925_001859;0.340;9.555;-1.867;0.006;-0.005;-0.003;
20190925_001859;0.395;9.720;-2.002;0.004;-0.003;-0.005;
20190925_001859;0.460;9.754;-1.990;0.002;-0.005;-0.006;
20190925_001859;0.338;9.522;-2.150;-0.000;-0.006;-0.003;
20190925_001900;0.201;9.541;-1.848;-0.006;-0.008;-0.003;
20190925_001900;0.160;9.620;-1.772;-0.002;-0.006;0.003;
20190925_001900;0.230;9.459;-2.064;0.002;-0.006;0.004;
20190925_001900;0.208;9.421;-2.157;-0.000;-0.005;0.007;
20190925_001900;0.213;9.115;-1.719;-0.001;-0.008;0.005;
20190925_001900;0.273;9.653;-1.714;0.006;-0.005;0.001;
20190925_001900;0.553;9.780;-1.887;0.005;-0.005;-0.003;
20190925_001900;0.637;9.675;-2.229;-0.001;-0.001;-0.005;
20190925_001900;0.608;9.385;-2.016;-0.001;-0.001;-0.006;
20190925_001901;0.366;9.397;-1.879;-0.001;-0.003;-0.008;
20190925_001901;0.340;9.644;-1.791;-0.004;-0.002;-0.007;
20190925_001901;0.333;9.752;-2.155;0.002;-0.001;-0.002;
20190925_001901;0.350;9.651;-2.006;-0.001;-0.001;-0.001;
20190925_001901;0.239;9.354;-1.973;-0.006;-0.000;0.000;
20190925_001901;0.189;9.301;-1.803;0.001;-0.001;-0.001;
20190925_001901;0.309;9.433;-1.707;0.002;-0.002;-0.001;
20190925_001901;0.359;9.491;-2.148;0.004;-0.000;-0.001;
20190925_001901;0.273;9.476;-1.992;0.003;-0.002;-0.003;
20190925_001901;0.084;9.629;-1.918;-0.002;-0.003;-0.005;
20190925_001902;0.345;9.606;-1.803;-0.002;-0.003;-0.004;
20190925_001902;0.369;9.464;-2.023;0.001;-0.001;0.000;
20190925_001902;0.065;9.816;-2.174;0.004;-0.005;-0.004;
20190925_001902;0.113;9.809;-1.913;-0.000;-0.007;-0.004;
20190925_001902;0.338;9.292;-2.195;-0.009;-0.003;-0.001;
20190925_001902;0.405;9.026;-1.654;-0.008;-0.005;0.000;
20190925_001902;0.338;9.203;-1.571;-0.000;-0.007;0.000;
20190925_001902;0.074;9.594;-2.025;0.009;-0.006;-0.002;
20190925_001902;0.266;9.943;-2.184;0.002;-0.006;-0.001;
20190925_001903;0.419;9.668;-1.982;-0.002;-0.006;0.003;
20190925_001903;0.330;9.500;-1.827;-0.000;-0.006;0.001;
20190925_001903;0.189;9.639;-1.556;-0.001;-0.006;-0.001;
20190925_001903;0.244;9.471;-2.025;0.001;-0.006;-0.002;
20190925_001903;0.347;9.318;-2.298;-0.002;-0.006;-0.003;
20190925_001903;0.455;9.538;-2.093;-0.005;-0.003;-0.001;
20190925_001903;0.311;9.481;-1.518;-0.004;-0.002;-0.001;
20190925_001903;0.297;9.342;-1.721;-0.001;-0.005;-0.007;
20190925_001903;0.400;9.685;-1.731;0.004;-0.000;-0.003;
20190925_001904;0.417;9.565;-2.358;0.006;0.001;-0.001;
20190925_001904;0.204;9.629;-1.968;0.001;-0.000;-0.004;
20190925_001904;0.208;9.606;-1.920;-0.006;0.002;-0.003;
20190925_001904;0.371;9.337;-2.040;-0.011;0.001;-0.001;
20190925_001904;0.397;9.294;-1.741;-0.008;0.005;0.004;
20190925_001904;0.436;9.258;-1.772;-0.002;0.005;0.004;
20190925_001904;0.089;9.663;-1.822;0.002;0.003;0.003;
20190925_001904;0.022;9.479;-2.152;0.006;-0.000;-0.003;
20190925_001904;0.192;9.486;-1.968;-0.001;0.004;-0.003;
20190925_001905;0.491;9.191;-1.741;-0.001;0.004;-0.002;
20190925_001905;0.508;9.503;-1.674;-0.002;0.005;0.000;
20190925_001905;0.232;9.443;-1.786;0.004;0.003;0.003;
20190925_001905;-0.057;9.728;-2.100;0.004;0.004;-0.003;
20190925_001905;0.086;9.625;-2.107;-0.004;0.003;-0.001;
20190925_001905;0.285;9.481;-1.812;-0.008;0.004;0.001;
20190925_001905;0.230;9.290;-1.741;-0.008;0.004;0.001;
20190925_001905;0.153;9.459;-1.896;-0.000;0.004;-0.001;
20190925_001905;0.079;9.414;-1.762;0.005;0.002;-0.003;
20190925_001905;0.151;9.495;-2.076;0.001;0.003;-0.002;
20190925_001906;0.309;9.675;-2.033;0.004;0.004;-0.003;
20190925_001906;0.366;9.615;-1.700;-0.006;0.004;-0.003;
20190925_001906;0.409;9.282;-1.697;-0.010;0.003;-0.003;
20190925_001906;0.225;9.038;-2.066;-0.005;0.005;-0.004;
20190925_001906;-0.055;9.519;-1.999;0.007;0.002;-0.006;
20190925_001906;-0.041;9.531;-1.798;0.006;0.001;-0.009;
20190925_001906;0.232;9.656;-1.985;0.003;0.003;-0.004;
20190925_001906;0.292;9.713;-1.925;0.005;0.005;0.000;
20190925_001906;0.136;9.464;-1.769;0.005;0.003;-0.002;
20190925_001907;0.024;9.618;-1.927;0.004;0.003;-0.002;
20190925_001907;0.014;9.649;-2.116;0.004;0.003;-0.002;
20190925_001907;0.251;9.768;-1.882;-0.004;0.004;-0.003;
20190925_001907;0.481;9.337;-1.944;-0.012;0.006;0.003;
20190925_001907;0.235;9.527;-1.899;-0.001;0.005;0.004;
20190925_001907;0.043;9.768;-2.078;0.002;0.002;-0.005;
20190925_001907;0.285;9.670;-1.851;-0.007;0.004;-0.002;
20190925_001907;0.263;9.438;-1.903;-0.002;0.002;-0.001;
20190925_001907;0.115;9.280;-1.846;0.004;0.003;0.000;
20190925_001907;0.158;9.438;-1.918;-0.001;0.002;0.000;
20190925_001908;0.218;9.517;-1.982;-0.001;0.004;0.003;
20190925_001908;0.134;9.541;-1.942;-0.001;0.002;-0.002;
20190925_001908;0.230;9.404;-1.882;-0.000;0.003;0.000;
20190925_001908;0.153;9.457;-2.021;0.006;0.003;-0.002;
20190925_001908;0.213;9.543;-2.042;0.001;0.002;-0.004;
20190925_001908;0.304;9.538;-1.997;-0.004;0.004;0.000;
20190925_001908;0.302;9.486;-2.004;0.003;0.003;0.001;
20190925_001908;0.141;9.957;-1.903;0.003;0.003;0.000;
20190925_001908;0.062;9.541;-1.875;-0.002;0.003;-0.001;
20190925_001909;0.057;9.653;-1.980;-0.004;0.002;-0.004;
20190925_001909;0.227;9.364;-2.052;-0.002;0.005;0.000;
20190925_001909;0.441;9.278;-1.872;-0.007;0.006;0.003;
20190925_001909;0.132;9.536;-1.848;0.001;0.006;0.003;
20190925_001909;0.057;9.562;-1.985;-0.001;0.003;-0.002;
20190925_001909;0.093;9.574;-1.944;0.006;0.003;-0.002;
20190925_001909;0.220;9.323;-1.853;0.002;0.004;-0.003;
20190925_001909;0.311;9.653;-1.918;0.004;0.003;0.000;
20190925_001909;0.323;9.687;-2.061;0.001;0.006;0.001;
20190925_001910;0.093;9.536;-1.918;-0.008;0.003;-0.003;
20190925_001910;0.156;9.340;-1.803;-0.008;0.002;-0.001;
20190925_001910;0.187;9.079;-1.681;-0.000;0.004;-0.002;
20190925_001910;0.206;9.486;-2.164;0.006;0.005;-0.002;
20190925_001910;0.081;9.541;-2.172;0.001;0.004;-0.002;
20190925_001910;0.036;9.742;-1.992;0.002;0.002;-0.006;
20190925_001910;0.287;9.582;-1.781;-0.002;0.002;-0.002;
20190925_001910;0.290;9.440;-1.944;-0.002;0.004;0.001;
20190925_001910;0.220;9.744;-2.047;0.001;0.004;0.003;
20190925_001911;0.007;9.637;-1.997;-0.004;0.002;0.000;
20190925_001911;0.225;9.589;-1.867;-0.004;0.003;0.000;
20190925_001911;0.249;9.402;-1.769;-0.008;0.004;0.001;
20190925_001911;0.271;9.524;-2.066;-0.000;0.003;0.001;
20190925_001911;0.086;9.467;-2.095;-0.001;0.003;-0.004;
20190925_001911;0.165;9.323;-1.793;-0.002;0.002;-0.003;
20190925_001911;0.208;9.232;-1.832;0.003;0.003;-0.003;
20190925_001911;0.259;9.163;-1.757;0.005;0.005;0.001;
20190925_001911;0.134;9.713;-1.870;0.005;0.004;0.000;
20190925_001911;0.079;9.641;-1.944;-0.005;0.001;-0.002;
20190925_001912;0.309;9.424;-2.014;0.002;0.004;0.001;
20190925_001912;0.187;9.347;-1.654;0.001;0.004;-0.001;
20190925_001912;0.146;9.627;-1.827;0.006;0.002;-0.002;
20190925_001912;0.117;9.503;-2.227;0.004;0.001;-0.002;
20190925_001912;0.110;9.744;-1.769;0.002;-0.000;-0.002;
20190925_001912;0.141;9.584;-1.767;-0.002;-0.001;0.004;
20190925_001912;0.050;9.665;-2.258;0.011;-0.002;0.000;
20190925_001912;-0.074;9.759;-1.961;-0.004;-0.005;0.006;
20190925_001912;0.050;9.486;-1.982;-0.008;-0.005;0.004;
20190925_001913;0.366;9.237;-1.896;-0.002;-0.003;0.008;
20190925_001913;0.005;9.577;-1.925;0.004;-0.006;0.005;
20190925_001913;0.086;9.517;-2.028;-0.002;-0.008;-0.001;
20190925_001913;0.405;9.304;-1.925;-0.007;-0.006;0.003;
20190925_001913;0.481;9.352;-1.580;0.003;-0.009;0.000;
20190925_001913;0.259;9.306;-1.628;0.006;-0.010;-0.001;
20190925_001913;0.115;9.632;-2.270;0.009;-0.009;-0.003;
20190925_001913;0.177;9.752;-2.140;0.005;-0.009;0.003;
20190925_001913;0.213;9.680;-1.781;-0.012;-0.012;0.000;
20190925_001913;0.366;9.448;-1.867;0.001;-0.009;0.004;
20190925_001914;0.283;9.524;-1.887;0.004;-0.009;0.004;
20190925_001914;0.199;9.677;-2.224;0.004;-0.011;0.001;
20190925_001914;0.098;9.591;-2.028;-0.012;-0.011;0.000;
20190925_001914;0.417;9.225;-1.621;0.001;-0.010;0.004;
20190925_001914;0.263;9.127;-1.700;-0.002;-0.011;0.004;
20190925_001914;0.309;9.570;-1.791;0.011;-0.011;-0.001;
20190925_001914;0.218;9.931;-1.918;-0.004;-0.010;-0.002;
20190925_001914;0.522;9.682;-2.028;-0.009;-0.011;0.000;
20190925_001914;0.484;9.335;-2.004;-0.000;-0.010;0.003;
20190925_001915;0.290;9.136;-1.870;-0.005;-0.009;-0.002;
20190925_001915;0.153;9.534;-2.085;0.007;-0.008;0.003;
20190925_001915;0.359;9.457;-1.855;0.001;-0.006;0.008;
20190925_001915;0.441;9.531;-2.164;0.002;-0.002;0.007;
20190925_001915;0.345;9.311;-1.832;-0.002;-0.001;0.006;
20190925_001915;0.271;9.613;-1.607;0.006;-0.005;-0.001;
20190925_001915;0.388;9.778;-2.025;0.007;-0.001;-0.002;
20190925_001915;0.505;9.486;-2.193;-0.000;-0.000;-0.004;
20190925_001915;0.448;9.464;-2.160;-0.009;-0.001;0.000;
