Timestamp;Accel_x;Accel_y;Accel_z;Gyro_x;Gyro_y;Gyro_z;
20190908_091814;-0.747;5.978;8.028;0.264;-0.275;0.061;
20190908_091814;-1.022;5.816;7.882;-0.055;0.131;-0.023;
20190908_091814;-1.027;5.842;8.107;-0.036;0.036;0.001;
20190908_091814;-0.778;5.851;7.695;0.082;-0.064;0.027;
20190908_091814;-1.013;6.132;8.490;0.540;-0.488;0.006;
20190908_091814;-0.721;7.515;6.716;1.978;-0.909;0.075;
20190908_091814;1.834;8.617;3.464;2.338;-1.431;0.250;
20190908_091815;1.652;9.354;2.952;0.873;-1.112;0.139;
20190908_091815;0.998;9.285;1.645;1.399;-0.754;-0.351;
20190908_091815;0.340;10.080;3.287;0.191;0.531;-0.498;
20190908_091815;2.717;9.179;-0.297;1.719;0.240;0.557;
20190908_091815;1.994;9.711;-1.065;1.373;0.540;0.153;
20190908_091815;2.219;8.590;-1.032;1.985;0.401;-0.461;
20190908_091815;2.626;9.225;-2.047;0.946;0.173;0.236;
20190908_091815;0.781;8.538;-4.120;1.843;0.208;-0.098;
20190908_091815;1.089;7.242;-6.357;0.869;0.735;0.139;
20190908_091815;2.672;8.732;-5.595;0.216;0.208;-0.043;
20190908_091816;0.536;7.175;-6.503;0.281;0.062;-0.263;
20190908_091816;1.262;7.321;-6.922;0.049;-0.038;-0.496;
20190908_091816;1.659;8.408;-5.847;-0.416;0.446;-0.093;
20190908_091816;-0.333;8.959;-6.115;-0.315;0.234;-0.212;
20190908_091816;3.682;8.732;-5.399;-0.643;0.264;0.061;
20190908_091816;1.250;8.497;-4.954;-0.228;0.248;-0.732;
20190908_091816;-0.766;8.851;-4.664;-0.350;-0.107;-0.980;
20190908_091816;0.017;8.550;-4.805;-0.401;-0.071;-0.059;
20190908_091816;0.043;8.784;-4.793;-0.035;0.006;0.174;
20190908_091817;-0.675;8.183;-3.587;-0.426;-0.005;0.444;
20190908_091817;-0.096;8.423;-5.377;-0.156;0.039;-0.039;
20190908_091817;-1.523;9.210;-1.853;-0.650;0.063;-0.957;
20190908_091817;-0.713;9.823;-2.155;-0.235;0.051;0.005;
20190908_091817;-0.867;9.682;-1.966;-0.134;0.027;-0.077;
20190908_091817;-0.833;9.431;-2.552;-0.048;0.024;-0.004;
20190908_091817;-0.814;9.196;-3.045;-0.049;0.126;0.011;
20190908_091817;-0.737;9.531;-2.083;0.033;0.034;0.000;
20190908_091817;-0.697;9.589;-2.222;0.002;0.011;-0.003;
20190908_091817;-0.637;9.419;-2.184;-0.024;0.028;-0.001;
20190908_091818;-0.661;9.469;-2.162;-0.016;0.027;-0.003;
20190908_091818;-0.599;9.357;-2.631;0.068;0.011;-0.008;
20190908_091818;-0.620;9.512;-2.325;0.014;0.019;-0.002;
20190908_091818;-0.974;9.618;-2.267;0.016;0.006;-0.001;
20190908_091818;0.201;9.685;-1.913;-0.045;-0.012;0.798;
20190908_091818;0.117;9.562;-2.107;0.004;0.015;-0.042;
20190908_091818;0.057;9.450;-2.188;0.019;0.013;-0.005;
20190908_091818;0.074;9.431;-2.150;0.018;0.053;-0.003;
20190908_091818;0.227;9.608;-2.294;0.016;0.043;-0.003;
20190908_091819;0.316;9.629;-2.097;-0.012;0.015;-0.005;
20190908_091819;0.259;9.606;-2.377;0.032;0.027;-0.006;
20190908_091819;0.120;9.486;-2.162;0.000;0.013;-0.005;
20190908_091819;0.211;9.450;-2.430;0.013;0.011;-0.004;
20190908_091819;0.206;9.488;-2.284;-0.006;0.015;-0.004;
20190908_091819;0.184;9.517;-2.219;0.007;0.011;-0.005;
20190908_091819;0.160;9.637;-2.265;0.007;0.011;-0.004;
20190908_091819;0.108;9.467;-2.251;0.003;0.011;-0.003;
20190908_091819;0.098;9.459;-2.205;0.002;0.011;-0.003;
20190908_091819;0.124;9.527;-2.277;0.003;0.009;-0.004;
20190908_091820;0.153;9.433;-2.162;-0.002;0.010;-0.004;
20190908_091820;0.158;9.498;-2.243;0.003;0.009;-0.004;
20190908_091820;0.184;9.560;-2.215;-0.001;0.010;-0.004;
20190908_091820;0.208;9.680;-2.282;-0.002;0.009;-0.003;
20190908_091820;0.235;9.618;-2.310;0.005;0.008;-0.004;
20190908_091820;0.251;9.531;-2.224;-0.004;0.010;-0.005;
20190908_091820;0.242;9.407;-2.274;0.004;0.009;-0.004;
20190908_091820;0.230;9.462;-2.203;-0.001;0.009;-0.003;
20190908_091820;0.227;9.462;-2.241;-0.001;0.009;-0.003;
20190908_091820;0.232;9.567;-2.212;0.000;0.008;-0.002;
20190908_091821;0.139;9.589;-2.188;0.004;0.008;-0.003;
20190908_091821;0.134;9.548;-2.224;0.000;0.008;-0.004;
20190908_091821;0.139;9.601;-2.306;0.003;0.008;-0.001;
20190908_091821;0.163;9.586;-2.267;-0.001;0.006;-0.002;
20190908_091821;0.208;9.538;-2.277;-0.001;0.008;-0.003;
20190908_091821;0.225;9.522;-2.289;0.000;0.008;-0.004;
20190908_091821;0.247;9.287;-2.198;0.002;0.007;-0.005;
20190908_091821;0.223;9.380;-2.241;0.001;0.006;-0.004;
20190908_091821;0.165;9.428;-2.203;0.003;0.006;-0.004;
20190908_091822;0.108;9.464;-2.200;0.002;0.006;-0.004;
20190908_091822;0.148;9.608;-2.277;0.003;0.006;-0.004;
20190908_091822;0.120;9.565;-2.167;-0.002;0.007;-0.002;
20190908_091822;0.187;9.570;-2.368;0.002;0.006;-0.002;
20190908_091822;0.211;9.498;-2.251;0.004;0.006;-0.003;
20190908_091822;0.124;9.450;-2.184;-0.001;0.006;-0.004;
20190908_091822;0.163;9.519;-2.260;-0.001;0.008;-0.003;
20190908_091822;0.184;9.426;-2.272;0.001;0.006;-0.004;
20190908_091822;0.263;9.491;-2.229;0.002;0.007;-0.004;
20190908_091822;0.266;9.531;-2.179;-0.001;0.007;-0.004;
20190908_091823;0.266;9.543;-2.294;0.003;0.005;-0.005;
20190908_091823;0.199;9.606;-2.227;0.001;0.007;-0.002;
20190908_091823;0.101;9.474;-2.176;-0.004;0.007;-0.002;
20190908_091823;0.091;9.522;-2.265;0.007;0.006;-0.002;
20190908_091823;0.189;9.524;-2.241;-0.001;0.008;0.000;
20190908_091823;0.175;9.507;-2.224;0.004;0.005;-0.003;
20190908_091823;0.165;9.486;-2.203;0.001;0.007;-0.003;
20190908_091823;0.158;9.543;-2.203;-0.001;0.007;-0.001;
20190908_091823;0.148;9.577;-2.296;0.004;0.005;-0.002;
20190908_091824;0.136;9.603;-2.184;-0.003;0.005;-0.003;
20190908_091824;0.182;9.510;-2.203;0.003;0.005;-0.005;
20190908_091824;0.189;9.570;-2.279;-0.001;0.005;-0.002;
20190908_091824;0.182;9.589;-2.291;-0.001;0.005;-0.001;
20190908_091824;0.168;9.596;-2.253;0.001;0.005;0.000;
20190908_091824;0.062;9.546;-2.200;-0.003;0.005;-0.001;
20190908_091824;0.034;9.505;-2.291;0.007;0.005;-0.001;
20190908_091824;0.105;9.464;-2.236;0.001;0.003;-0.003;
20190908_091824;0.177;9.562;-2.246;0.000;0.004;-0.001;
20190908_091824;0.201;9.677;-2.322;0.004;0.002;-0.002;
20190908_091825;0.211;9.716;-2.301;0.004;0.002;-0.002;
20190908_091825;0.180;9.515;-2.215;-0.001;0.003;-0.004;
20190908_091825;0.144;9.431;-2.191;0.002;0.003;-0.001;
20190908_091825;0.148;9.421;-2.229;0.001;0.003;-0.001;
20190908_091825;0.117;9.457;-2.263;0.000;0.002;-0.002;
20190908_091825;0.153;9.577;-2.239;-0.002;0.003;-0.003;
20190908_091825;0.105;9.450;-2.284;0.000;0.003;-0.001;
20190908_091825;0.029;9.488;-2.222;0.004;0.003;-0.002;
20190908_091825;0.096;9.594;-2.145;0.003;0.003;-0.001;
20190908_091826;0.165;9.574;-2.234;-0.003;0.003;-0.003;
20190908_091826;0.134;9.462;-2.306;0.002;0.001;-0.002;
20190908_091826;0.144;9.333;-2.174;0.000;0.003;-0.004;
20190908_091826;0.187;9.402;-2.052;-0.007;0.004;-0.003;
20190908_091826;0.201;9.570;-2.222;-0.001;-0.002;-0.003;
20190908_091826;0.156;9.541;-2.162;0.001;0.001;-0.004;
20190908_091826;0.158;9.397;-2.258;0.001;0.004;-0.002;
20190908_091826;0.115;9.467;-2.179;-0.003;0.002;-0.001;
20190908_091826;0.148;9.670;-2.289;-0.005;0.001;0.000;
20190908_091826;0.093;9.718;-2.248;0.001;0.001;-0.002;
20190908_091827;0.122;9.543;-2.203;-0.001;0.003;-0.001;
20190908_091827;0.132;9.491;-2.224;0.000;-0.000;-0.002;
20190908_091827;0.151;9.361;-2.160;0.000;0.001;-0.002;
20190908_091827;0.213;9.378;-2.172;0.001;0.002;-0.002;
20190908_091827;0.103;9.491;-2.172;0.000;0.001;-0.002;
20190908_091827;0.134;9.653;-2.251;0.002;0.003;-0.003;
20190908_091827;0.115;9.572;-2.358;0.008;0.001;-0.002;
20190908_091827;0.115;9.546;-2.279;0.002;0.003;0.000;
20190908_091827;0.113;9.629;-2.239;-0.002;0.001;-0.001;
20190908_091827;0.043;9.598;-2.243;-0.002;0.003;-0.001;
20190908_091828;0.077;9.448;-2.186;0.001;0.002;-0.001;
20190908_091828;0.144;9.443;-2.188;0.000;0.001;-0.002;
20190908_091828;0.259;9.474;-2.377;0.009;0.001;0.000;
20190908_091828;0.211;9.471;-2.107;-0.003;0.002;-0.002;
20190908_091828;0.160;9.543;-2.315;0.002;-0.002;-0.003;
20190908_091828;0.108;9.517;-2.109;-0.002;0.003;0.000;
20190908_091828;0.093;9.481;-2.260;-0.001;0.001;-0.001;
20190908_091828;0.132;9.455;-2.188;0.002;0.002;-0.001;
20190908_091828;0.175;9.469;-2.152;-0.005;0.002;0.000;
20190908_091829;0.141;9.448;-2.162;0.000;-0.000;-0.002;
20190908_091829;0.136;9.476;-2.193;0.001;0.001;-0.003;
20190908_091829;0.139;9.459;-2.263;-0.003;0.002;-0.001;
20190908_091829;0.215;9.538;-2.270;0.000;-0.000;-0.002;
20190908_091829;0.278;9.665;-2.188;-0.003;-0.000;-0.002;
20190908_091829;0.177;9.483;-2.195;0.011;-0.002;0.000;
20190908_091829;0.115;9.697;-2.143;0.009;-0.004;0.006;
20190908_091829;0.120;9.670;-2.361;-0.001;0.003;-0.001;
20190908_091829;0.170;9.570;-2.227;-0.001;0.002;0.000;
20190908_091829;0.180;9.584;-2.380;0.003;0.001;-0.001;
20190908_091830;0.122;9.440;-2.078;-0.027;0.005;-0.008;
20190908_091830;0.146;9.591;-2.239;-0.003;0.003;-0.001;
20190908_091830;0.017;9.546;-2.255;0.002;0.002;-0.001;
20190908_091830;0.000;9.503;-2.136;-0.001;0.001;-0.003;
20190908_091830;0.072;9.555;-2.172;-0.001;0.002;-0.004;
20190908_091830;0.134;9.567;-2.274;0.003;-0.000;-0.003;
20190908_091830;0.196;9.536;-2.291;0.003;0.001;-0.001;
20190908_091830;0.122;9.534;-2.157;-0.002;0.003;-0.001;
20190908_091830;0.079;9.428;-2.150;-0.002;0.002;-0.001;
20190908_091831;0.017;9.421;-2.112;0.005;-0.002;-0.003;
20190908_091831;0.074;9.567;-2.267;-0.001;0.002;-0.004;
20190908_091831;0.189;9.586;-2.368;-0.002;0.003;-0.002;
20190908_091831;0.283;9.634;-2.284;-0.004;0.002;-0.003;
20190908_091831;0.280;9.692;-2.306;0.000;0.002;-0.002;
20190908_091831;0.165;9.330;-2.224;-0.002;0.001;-0.005;
20190908_091831;0.072;9.321;-2.059;-0.004;0.002;-0.002;
20190908_091831;0.041;9.412;-2.291;0.007;-0.000;-0.001;
20190908_091831;0.160;9.515;-2.212;-0.002;0.002;-0.003;
20190908_091832;0.180;9.692;-2.342;0.005;0.002;-0.001;
20190908_091832;0.132;9.665;-2.260;0.005;0.002;-0.002;
20190908_091832;0.069;9.668;-2.308;-0.002;0.002;-0.001;
20190908_091832;0.098;9.608;-2.253;-0.006;0.002;-0.001;
20190908_091832;0.043;9.412;-2.193;-0.006;-0.000;-0.004;
20190908_091832;0.000;9.364;-2.229;-0.009;0.001;-0.002;
20190908_091832;0.086;9.359;-2.370;-0.001;-0.000;-0.003;
20190908_091832;0.170;9.515;-2.126;0.000;-0.000;-0.002;
20190908_091832;0.072;9.510;-2.212;-0.004;0.002;-0.001;
20190908_091832;0.067;9.519;-2.112;-0.022;-0.002;-0.003;
20190908_091833;-0.026;9.433;-2.126;-0.012;0.003;-0.003;
20190908_091833;0.067;9.505;-2.193;0.003;0.001;-0.004;
20190908_091833;0.146;9.495;-2.294;0.007;-0.003;-0.004;
20190908_091833;0.213;9.548;-2.145;0.016;0.005;-0.002;
20190908_091833;0.165;9.560;-2.394;0.010;0.002;-0.002;
20190908_091833;0.098;9.498;-2.045;0.002;0.004;-0.001;
20190908_091833;0.079;9.534;-2.140;0.015;0.006;-0.002;
20190908_091833;0.038;9.357;-2.176;0.007;0.002;-0.001;
20190908_091833;-0.014;9.471;-2.318;0.032;0.004;0.000;
20190908_091834;0.067;9.510;-2.306;0.057;0.003;0.004;
20190908_091834;0.079;9.673;-2.643;0.034;-0.000;0.000;
20190908_091834;0.110;9.538;-2.229;-0.031;0.002;-0.004;
20190908_091834;0.160;9.550;-2.373;-0.025;0.001;-0.002;
20190908_091834;0.096;9.558;-2.322;0.011;0.005;-0.003;
20190908_091834;0.115;9.376;-2.306;0.010;0.001;-0.002;
20190908_091834;0.084;9.464;-2.272;-0.005;0.003;0.001;
20190908_091834;0.067;9.359;-2.284;0.011;0.001;-0.001;
20190908_091834;0.117;9.395;-2.289;-0.005;0.002;0.000;
20190908_091834;0.091;9.527;-2.476;0.000;-0.002;0.000;
20190908_091835;0.115;9.627;-2.468;-0.001;-0.000;-0.001;
20190908_091835;0.168;9.582;-2.418;-0.005;0.002;-0.001;
20190908_091835;0.151;9.543;-2.368;-0.003;0.001;-0.001;
20190908_091835;0.196;9.680;-2.320;0.000;0.001;-0.002;
20190908_091835;0.041;9.546;-2.222;-0.004;-0.002;-0.003;
20190908_091835;0.036;9.459;-2.301;-0.004;0.004;0.000;
20190908_091835;-0.002;9.424;-2.279;-0.005;0.002;0.001;
20190908_091835;-0.002;9.436;-2.377;0.002;0.001;-0.001;
20190908_091835;-0.022;9.555;-2.330;0.000;0.002;0.000;
20190908_091836;0.060;9.675;-2.442;0.007;0.002;0.000;
20190908_091836;0.146;9.543;-2.327;-0.002;0.002;0.000;
20190908_091836;0.134;9.656;-2.385;-0.003;0.001;-0.001;
20190908_091836;0.115;9.459;-2.346;0.003;0.001;-0.001;
20190908_091836;0.108;9.574;-2.294;-0.003;0.002;-0.002;
20190908_091836;0.067;9.503;-2.382;-0.004;0.001;-0.002;
20190908_091836;0.010;9.488;-2.286;0.002;0.002;-0.001;
20190908_091836;0.060;9.479;-2.423;0.001;0.001;-0.001;
20190908_091836;0.103;9.493;-2.327;0.004;0.001;0.000;
20190908_091836;0.098;9.732;-2.418;0.004;0.001;-0.001;
20190908_091837;0.108;9.495;-2.291;-0.003;0.001;-0.001;
20190908_091837;0.038;9.558;-2.339;0.000;0.001;-0.001;
20190908_091837;0.010;9.457;-2.303;-0.002;0.002;-0.002;
20190908_091837;0.060;9.550;-2.382;0.004;-0.000;-0.001;
20190908_091837;0.014;9.493;-2.330;-0.001;0.002;-0.001;
20190908_091837;0.026;9.493;-2.397;0.003;0.001;-0.001;
20190908_091837;0.005;9.550;-2.255;-0.002;0.001;0.001;
20190908_091837;-0.043;9.543;-2.318;0.001;-0.000;0.000;
20190908_091837;-0.069;9.450;-2.286;0.001;0.001;0.000;
20190908_091838;-0.010;9.378;-2.368;0.000;0.001;-0.001;
20190908_091838;-0.007;9.448;-2.267;0.003;-0.000;-0.001;
20190908_091838;0.053;9.426;-2.382;-0.001;-0.000;0.000;
20190908_091838;0.029;9.515;-2.310;-0.001;0.001;0.000;
20190908_091838;0.057;9.534;-2.344;-0.001;-0.000;-0.001;
20190908_091838;0.036;9.416;-2.344;0.007;-0.002;-0.002;
20190908_091838;0.081;9.438;-2.265;-0.002;0.001;0.000;
20190908_091838;0.060;9.416;-2.322;-0.001;0.001;0.001;
20190908_091838;0.089;9.519;-2.397;-0.001;0.001;0.000;
20190908_091839;0.124;9.620;-2.301;0.001;0.001;-0.001;
20190908_091839;0.141;9.680;-2.356;0.002;-0.000;0.000;
20190908_091839;0.108;9.637;-2.471;0.003;0.002;-0.001;
20190908_091839;0.050;9.500;-2.370;-0.001;-0.000;-0.001;
20190908_091839;-0.041;9.538;-2.454;0.004;-0.000;-0.001;
20190908_091839;-0.041;9.428;-2.248;-0.002;0.001;0.000;
20190908_091839;0.026;9.479;-2.337;0.000;0.002;0.000;
20190908_091839;-0.069;9.481;-2.423;-0.003;0.003;0.001;
20190908_091839;0.093;9.606;-2.351;0.003;0.001;0.000;
20190908_091839;0.139;9.345;-2.277;-0.004;0.002;0.000;
20190908_091840;0.160;9.409;-2.157;-0.004;0.001;0.000;
20190908_091840;0.069;9.373;-2.373;0.005;-0.002;-0.001;
20190908_091840;0.134;9.311;-2.212;0.000;0.001;0.000;
20190908_091840;0.117;9.488;-2.267;-0.004;0.001;0.000;
20190908_091840;0.177;9.598;-2.416;0.007;-0.000;-0.001;
20190908_091840;0.148;9.677;-2.277;0.000;-0.000;0.000;
20190908_091840;0.180;9.661;-2.318;-0.003;-0.000;0.001;
20190908_091840;0.096;9.507;-2.373;-0.001;-0.000;-0.002;
20190908_091840;0.163;9.448;-2.385;0.001;0.002;0.000;
20190908_091841;0.180;9.503;-2.308;0.001;-0.000;-0.001;
20190908_091841;0.055;9.486;-2.387;0.004;-0.002;-0.002;
20190908_091841;-0.014;9.469;-2.387;-0.001;0.001;0.000;
20190908_091841;0.002;9.503;-2.330;0.001;0.002;-0.001;
20190908_091841;0.007;9.440;-2.389;0.002;0.001;-0.001;
20190908_091841;0.031;9.452;-2.320;0.002;0.001;-0.001;
20190908_091841;0.060;9.488;-2.409;0.005;-0.000;0.000;
20190908_091841;0.024;9.452;-2.188;-0.014;0.005;0.003;
20190908_091841;0.055;9.426;-2.260;0.008;-0.003;-0.001;
20190908_091841;0.034;9.488;-2.267;-0.004;0.002;-0.003;
20190908_091842;0.237;9.345;-2.310;-0.004;0.003;-0.001;
20190908_091842;0.206;9.392;-2.207;0.000;0.001;-0.001;
20190908_091842;0.235;9.596;-2.351;-0.001;0.002;0.003;
20190908_091842;0.156;9.522;-2.334;0.002;-0.002;-0.002;
20190908_091842;0.081;9.670;-2.327;0.001;0.001;0.000;
20190908_091842;0.024;9.565;-2.444;-0.002;0.002;-0.002;
20190908_091842;-0.010;9.534;-2.313;0.003;-0.002;-0.002;
20190908_091842;0.079;9.577;-2.296;-0.002;0.001;-0.001;
20190908_091842;0.108;9.385;-2.440;-0.001;-0.000;-0.002;
20190908_091843;0.043;9.409;-2.212;0.000;0.001;0.000;
20190908_091843;0.074;9.407;-2.301;-0.001;0.002;0.001;
20190908_091843;0.141;9.586;-2.411;0.000;-0.000;0.001;
20190908_091843;0.077;9.716;-2.334;0.004;-0.002;0.003;
20190908_091843;-0.081;9.548;-2.274;-0.002;-0.000;0.000;
20190908_091843;-0.115;9.550;-2.284;0.005;-0.000;0.000;
20190908_091843;-0.017;9.536;-2.392;0.003;0.001;0.000;
20190908_091843;0.103;9.385;-2.363;0.004;-0.000;-0.001;
20190908_091843;0.168;9.402;-2.365;-0.003;0.002;0.001;
20190908_091843;0.144;9.433;-2.373;0.005;-0.000;0.000;
20190908_091844;0.211;9.620;-2.485;0.000;-0.000;0.000;
20190908_091844;0.120;9.699;-2.320;0.000;-0.002;0.000;
20190908_091844;0.043;9.493;-2.289;0.001;0.001;0.001;
20190908_091844;0.002;9.438;-2.284;0.003;-0.000;-0.001;
20190908_091844;0.062;9.512;-2.308;0.003;-0.000;-0.001;
20190908_091844;0.120;9.448;-2.342;-0.003;-0.000;-0.002;
20190908_091844;0.180;9.431;-2.303;-0.002;-0.002;-0.001;
20190908_091844;0.124;9.546;-2.346;0.000;-0.000;0.001;
20190908_091844;0.113;9.555;-2.425;0.009;-0.003;-0.001;
20190908_091845;0.105;9.519;-2.361;-0.001;0.001;0.000;
20190908_091845;-0.048;9.388;-2.270;0.000;-0.002;0.001;
20190908_091845;-0.101;9.182;-2.272;-0.001;0.001;-0.001;
20190908_091845;-0.062;9.373;-2.248;0.002;-0.000;0.003;
20190908_091845;0.108;9.402;-2.406;0.011;-0.002;0.000;
20190908_091845;0.144;9.572;-2.492;0.009;-0.003;0.000;
20190908_091845;0.086;9.713;-2.658;0.004;-0.003;0.001;
20190908_091845;0.024;9.850;-2.543;-0.007;-0.000;0.000;
20190908_091845;0.153;9.596;-2.344;-0.011;-0.000;0.003;
20190908_091846;0.134;9.409;-2.380;-0.002;-0.002;0.001;
20190908_091846;0.117;9.014;-2.085;-0.008;-0.000;0.003;
20190908_091846;0.036;9.206;-1.875;-0.007;-0.003;0.001;
20190908_091846;-0.031;9.100;-2.346;0.020;-0.005;0.003;
20190908_091846;0.194;9.512;-2.210;0.003;-0.000;0.001;
20190908_091846;0.247;9.723;-2.478;0.010;-0.002;0.003;
20190908_091846;0.259;9.701;-2.260;0.001;-0.000;0.001;
20190908_091846;0.093;9.632;-2.658;0.007;-0.002;0.001;
20190908_091846;0.065;9.632;-2.377;-0.001;0.001;0.003;
20190908_091846;0.091;9.855;-2.543;0.004;-0.002;0.003;
20190908_091847;0.187;9.608;-2.473;-0.009;-0.002;0.001;
20190908_091847;0.115;9.244;-2.239;-0.015;0.003;0.003;
20190908_091847;0.110;9.421;-2.430;0.000;-0.002;0.003;
20190908_091847;0.182;9.462;-2.409;0.000;-0.003;0.001;
20190908_091847;0.172;9.357;-2.169;-0.001;-0.003;0.001;
20190908_091847;0.043;9.347;-2.219;-0.002;-0.002;0.001;
20190908_091847;0.010;9.251;-2.339;0.005;-0.002;0.000;
20190908_091847;0.184;9.440;-2.227;0.002;0.001;0.003;
20190908_091847;0.170;9.658;-2.507;0.010;-0.005;0.000;
20190908_091848;0.189;9.668;-2.452;0.002;-0.000;0.001;
20190908_091848;0.136;9.632;-2.535;0.001;-0.003;0.001;
20190908_091848;0.192;9.646;-2.399;-0.005;-0.000;0.000;
20190908_091848;0.259;9.608;-2.392;-0.005;0.001;0.000;
20190908_091848;0.261;9.261;-2.263;-0.004;0.001;0.000;
20190908_091848;0.170;9.333;-2.382;0.004;-0.000;-0.001;
20190908_091848;0.134;9.206;-2.037;-0.008;0.002;-0.002;
20190908_091848;0.132;9.196;-2.126;0.001;0.002;0.000;
20190908_091848;0.098;9.606;-2.425;0.004;0.002;0.001;
20190908_091848;0.175;9.730;-2.552;0.015;-0.003;-0.002;
20190908_091849;0.218;9.828;-2.399;0.002;0.002;0.001;
20190908_091849;0.057;9.618;-2.363;-0.003;0.002;0.000;
20190908_091849;0.091;9.397;-2.315;-0.002;0.002;0.000;
20190908_091849;0.201;9.732;-2.552;0.003;0.001;0.000;
20190908_091849;0.201;9.550;-2.373;-0.001;0.001;0.000;
20190908_091849;0.201;9.464;-2.344;-0.004;0.004;0.000;
20190908_091849;0.194;9.390;-2.131;-0.004;0.002;0.001;
20190908_091849;0.089;9.359;-2.255;-0.002;0.001;0.000;
20190908_091849;0.139;9.203;-2.349;0.001;0.002;-0.001;
20190908_091850;0.141;9.419;-2.404;0.008;0.001;0.001;
20190908_091850;0.208;9.747;-2.428;0.005;0.001;-0.001;
20190908_091850;0.129;9.764;-2.497;0.009;-0.000;0.000;
20190908_091850;0.103;9.364;-2.332;-0.001;0.001;0.003;
20190908_091850;0.048;9.515;-2.363;0.005;0.002;0.000;
20190908_091850;0.072;9.706;-2.535;-0.001;0.001;0.003;
20190908_091850;0.294;9.215;-2.454;0.013;-0.003;0.001;
20190908_091850;0.244;9.869;-2.430;0.010;0.002;0.006;
20190908_091850;0.309;9.029;-2.205;-0.016;0.002;0.004;
20190908_091851;0.168;9.965;-2.361;0.016;0.002;0.003;
20190908_091851;0.350;9.613;-2.526;-0.001;-0.002;0.001;
20190908_091851;0.340;9.689;-2.808;0.019;-0.004;-0.003;
20190908_091851;0.144;9.847;-2.318;0.029;-0.000;0.003;
20190908_091851;0.381;9.699;-2.796;-0.005;-0.006;-0.003;
20190908_091851;0.299;10.163;-2.543;0.009;0.003;0.003;
20190908_091851;0.225;9.060;-2.248;-0.017;-0.002;-0.002;
20190908_091851;0.029;9.139;-2.277;-0.005;0.005;0.003;
20190908_091851;-0.007;9.246;-2.243;-0.014;0.006;0.005;
20190908_091851;0.194;8.959;-2.157;-0.015;-0.000;-0.002;
20190908_091852;0.201;10.013;-2.571;0.005;0.003;0.001;
20190908_091852;0.036;9.043;-2.102;-0.019;-0.000;-0.001;
20190908_091852;0.151;9.467;-2.370;0.031;-0.003;-0.001;
20190908_091852;0.098;9.395;-2.485;-0.015;0.003;0.000;
20190908_091852;0.321;9.294;-2.121;0.018;0.001;-0.003;
20190908_091852;0.357;9.857;-2.468;-0.002;0.003;-0.002;
20190908_091852;0.347;9.692;-2.387;-0.002;0.002;-0.002;
20190908_091852;0.199;9.512;-2.184;0.009;0.002;-0.001;
20190908_091852;0.175;9.771;-2.610;0.002;-0.000;-0.001;
20190908_091853;0.105;9.378;-2.392;-0.005;0.003;-0.001;
20190908_091853;0.086;9.555;-2.394;0.001;0.001;-0.004;
20190908_091853;0.194;9.558;-2.105;-0.007;0.004;-0.001;
20190908_091853;0.196;9.548;-2.485;0.000;0.001;0.000;
20190908_091853;0.110;9.294;-2.088;-0.009;0.003;-0.001;
20190908_091853;0.108;9.261;-2.497;0.011;-0.000;-0.001;
20190908_091853;0.196;9.424;-2.370;0.000;0.002;0.001;
20190908_091853;-0.036;9.364;-2.267;0.012;-0.000;0.001;
20190908_091853;0.029;9.517;-2.332;0.002;0.002;0.001;
20190908_091853;0.182;9.577;-2.306;0.001;0.002;0.003;
20190908_091854;0.223;9.491;-2.600;0.002;0.001;0.000;
20190908_091854;0.362;9.728;-2.363;-0.006;0.003;0.000;
20190908_091854;0.182;9.629;-2.382;-0.006;0.001;-0.002;
20190908_091854;0.069;9.369;-2.488;0.012;-0.000;-0.001;
20190908_091854;0.235;9.507;-2.574;-0.007;0.004;-0.002;
20190908_091854;0.278;9.926;-2.437;0.003;-0.000;-0.001;
20190908_091854;0.172;9.361;-2.298;-0.004;-0.000;-0.003;
20190908_091854;0.093;9.064;-2.255;0.001;0.002;-0.001;
20190908_091854;0.120;9.127;-2.236;-0.001;0.002;0.000;
20190908_091855;0.254;9.512;-2.277;0.003;-0.000;-0.001;
20190908_091855;0.204;9.694;-2.397;0.002;0.001;0.001;
20190908_091855;0.172;9.553;-2.540;0.001;0.003;0.000;
20190908_091855;0.292;9.577;-2.418;0.002;0.001;0.000;
20190908_091855;0.316;9.392;-2.385;-0.008;0.002;-0.001;
20190908_091855;0.251;9.586;-2.296;-0.006;0.001;-0.001;
20190908_091855;0.208;9.876;-2.555;-0.004;0.002;0.000;
20190908_091855;0.065;9.196;-2.344;-0.009;-0.000;-0.002;
20190908_091855;-0.002;9.335;-2.406;0.003;0.002;-0.002;
20190908_091855;0.199;9.278;-2.346;0.008;0.001;-0.003;
20190908_091856;0.388;9.282;-2.392;-0.009;0.003;-0.002;
20190908_091856;0.014;9.364;-2.452;0.007;-0.000;-0.002;
20190908_091856;0.148;9.620;-2.263;-0.002;0.002;-0.001;
20190908_091856;0.347;9.682;-2.641;-0.003;0.002;-0.001;
20190908_091856;0.146;9.450;-2.373;0.005;-0.000;0.001;
20190908_091856;0.000;9.292;-2.231;-0.011;0.003;0.001;
20190908_091856;-0.060;9.237;-2.507;-0.004;0.005;0.000;
20190908_091856;0.148;9.493;-2.267;-0.004;0.001;-0.001;
20190908_091856;0.237;9.333;-2.559;0.008;-0.000;0.001;
20190908_091857;0.194;9.177;-2.296;-0.011;0.003;-0.001;
20190908_091857;0.378;9.263;-2.282;0.003;0.002;0.000;
20190908_091857;0.350;9.979;-2.442;-0.002;0.003;0.001;
20190908_091857;0.101;9.747;-2.401;-0.003;-0.003;-0.001;
20190908_091857;0.055;9.613;-2.454;-0.001;0.002;0.000;
20190908_091857;0.124;9.603;-2.310;-0.008;0.003;0.001;
20190908_091857;0.041;9.268;-2.308;-0.005;-0.000;0.000;
20190908_091857;0.038;9.088;-2.332;0.000;0.002;-0.001;
20190908_091857;0.280;8.997;-2.404;0.002;0.005;0.001;
20190908_091857;0.402;9.620;-2.325;0.013;0.002;0.000;
20190908_091858;0.316;9.682;-2.392;0.003;-0.000;-0.001;
20190908_091858;0.206;10.039;-2.531;0.004;-0.000;-0.001;
20190908_091858;0.079;9.610;-2.282;-0.015;0.005;-0.002;
20190908_091858;0.163;9.313;-2.430;0.004;0.002;-0.003;
20190908_091858;0.469;9.766;-2.717;0.005;0.001;0.000;
20190908_091858;0.304;9.450;-2.052;-0.019;0.002;-0.002;
20190908_091858;0.045;9.299;-2.370;0.002;0.003;-0.001;
20190908_091858;0.026;9.328;-2.442;-0.005;0.004;-0.001;
20190908_091858;0.223;9.687;-2.437;0.009;0.004;-0.001;
20190908_091859;0.275;9.615;-2.373;-0.005;0.004;0.000;
20190908_091859;0.148;9.268;-2.188;0.002;0.002;0.000;
20190908_091859;0.129;9.416;-2.361;0.010;0.005;0.000;
20190908_091859;0.172;9.656;-2.473;-0.020;0.006;-0.003;
20190908_091859;0.371;9.859;-3.065;0.031;-0.005;0.000;
20190908_091859;0.170;9.598;-1.724;-0.013;0.008;0.001;
20190908_091859;0.165;9.476;-2.478;0.029;-0.004;-0.005;
20190908_091859;0.211;9.579;-2.966;0.005;0.005;0.001;
20190908_091859;0.227;9.474;-2.562;-0.016;0.002;-0.006;
20190908_091859;0.115;9.206;-2.433;0.013;0.002;-0.001;
20190908_091900;0.048;9.471;-2.377;-0.001;0.003;-0.003;
20190908_091900;0.148;9.641;-2.354;0.009;0.003;-0.001;
20190908_091900;0.230;9.615;-2.394;-0.008;0.004;-0.001;
20190908_091900;0.139;9.618;-2.282;-0.001;0.002;-0.001;
20190908_091900;0.251;9.799;-2.756;0.001;0.004;-0.001;
20190908_091900;0.256;9.369;-2.368;-0.002;0.003;-0.001;
20190908_091900;0.244;9.366;-2.361;-0.007;0.002;0.000;
20190908_091900;0.120;9.280;-2.399;-0.003;0.005;0.000;
20190908_091900;0.096;9.254;-2.365;0.005;0.002;-0.001;
20190908_091901;0.230;9.883;-2.523;0.013;0.003;-0.001;
20190908_091901;0.225;9.536;-2.416;-0.003;0.002;-0.001;
20190908_091901;0.151;9.538;-2.143;-0.002;0.003;-0.001;
20190908_091901;-0.014;9.469;-2.377;0.008;0.002;0.001;
20190908_091901;0.096;9.301;-2.346;-0.007;0.003;-0.001;
20190908_091901;0.124;9.529;-2.480;0.002;0.001;0.001;
20190908_091901;0.199;9.505;-2.126;-0.008;0.003;0.001;
20190908_091901;0.141;9.627;-2.507;-0.001;0.003;0.000;
20190908_091901;0.266;9.448;-2.483;0.004;0.001;0.000;
20190908_091902;0.340;9.699;-2.416;-0.001;0.004;0.001;
20190908_091902;0.237;9.426;-2.315;-0.009;0.002;-0.001;
20190908_091902;0.235;9.153;-2.097;-0.006;0.003;-0.001;
20190908_091902;0.271;9.330;-2.449;0.002;-0.000;-0.002;
20190908_091902;0.436;9.416;-2.394;0.014;-0.000;-0.004;
20190908_091902;0.168;9.591;-2.406;0.007;0.002;-0.002;
20190908_091902;0.311;9.658;-2.449;0.004;0.002;-0.002;
20190908_091902;0.158;9.929;-2.562;0.005;-0.002;-0.002;
20190908_091902;0.084;9.469;-2.322;-0.007;0.001;-0.002;
20190908_091902;0.163;9.364;-2.650;0.002;0.001;-0.001;
20190908_091903;0.194;9.618;-2.423;-0.006;0.001;-0.002;
20190908_091903;0.235;9.512;-2.619;0.007;-0.000;0.001;
20190908_091903;0.220;9.584;-2.394;-0.015;0.004;0.000;
20190908_091903;0.158;9.249;-2.428;0.008;-0.002;-0.002;
20190908_091903;0.273;9.333;-2.267;-0.001;0.002;-0.001;
20190908_091903;0.263;9.433;-2.574;0.011;-0.003;-0.002;
20190908_091903;0.340;9.531;-2.069;-0.002;0.001;0.000;
20190908_091903;0.084;9.689;-2.389;-0.002;0.002;-0.001;
20190908_091903;0.089;9.538;-2.440;0.005;-0.000;-0.003;
20190908_091904;0.110;9.541;-2.502;0.004;-0.000;-0.001;
20190908_091904;0.158;9.639;-2.303;-0.005;0.001;-0.001;
20190908_091904;0.045;9.424;-2.330;0.001;-0.000;0.001;
20190908_091904;0.158;9.445;-2.272;-0.004;0.003;0.001;
20190908_091904;0.271;9.553;-2.361;0.010;-0.000;0.001;
20190908_091904;0.098;9.536;-2.303;-0.005;0.002;0.001;
20190908_091904;0.175;9.675;-2.550;0.003;0.001;0.000;
20190908_091904;0.244;9.287;-2.619;0.007;-0.002;0.000;
20190908_091904;0.299;9.546;-2.643;0.003;0.001;0.000;
20190908_091904;0.433;9.433;-2.435;0.008;-0.002;0.001;
20190908_091905;0.263;9.474;-2.069;0.001;-0.002;0.001;
20190908_091905;0.225;9.505;-2.322;-0.004;0.003;0.004;
20190908_091905;0.093;9.527;-2.270;0.001;0.002;-0.001;
20190908_091905;0.230;9.572;-2.535;0.009;-0.003;-0.002;
20190908_091905;0.338;9.682;-2.564;0.005;-0.002;-0.002;
20190908_091905;0.340;9.438;-2.222;-0.015;0.002;-0.001;
20190908_091905;0.215;9.182;-2.298;-0.003;0.002;0.000;
20190908_091905;0.089;9.079;-2.325;-0.001;0.002;0.001;
20190908_091905;0.158;9.340;-2.344;0.003;0.003;0.000;
20190908_091906;0.084;9.534;-2.562;0.008;-0.003;0.001;
20190908_091906;0.086;9.622;-2.164;-0.008;0.001;0.003;
20190908_091906;0.045;9.653;-2.483;-0.002;-0.000;0.000;
20190908_091906;0.148;9.084;-2.215;-0.007;0.001;-0.001;
20190908_091906;0.156;9.407;-2.483;0.015;-0.003;0.000;
20190908_091906;0.278;8.973;-2.416;-0.014;0.001;-0.004;
20190908_091906;0.362;9.459;-2.296;0.002;-0.002;-0.001;
20190908_091906;0.294;9.713;-2.358;-0.009;-0.000;-0.002;
20190908_091906;0.254;9.598;-2.327;0.013;-0.006;-0.002;
20190908_091907;0.220;9.555;-2.363;-0.005;-0.002;0.001;
20190908_091907;0.120;9.337;-2.215;-0.002;-0.000;-0.001;
20190908_091907;0.101;9.560;-2.356;0.013;-0.002;0.000;
20190908_091907;0.376;9.531;-2.433;-0.011;-0.002;-0.003;
20190908_091907;0.366;10.013;-2.456;0.008;-0.005;0.001;
20190908_091907;0.352;9.538;-2.193;-0.012;-0.002;-0.001;
20190908_091907;0.043;9.357;-2.768;0.012;-0.005;-0.002;
20190908_091907;0.208;9.641;-2.308;-0.006;-0.002;-0.002;
20190908_091907;0.060;9.337;-2.375;0.002;-0.003;-0.003;
20190908_091907;0.299;9.601;-2.389;-0.005;-0.003;0.001;
20190908_091908;0.278;9.476;-2.375;-0.009;-0.002;0.000;
20190908_091908;0.239;9.371;-2.265;0.007;-0.005;-0.001;
20190908_091908;0.249;9.582;-2.315;0.000;-0.000;0.003;
20190908_091908;0.180;9.232;-2.468;0.004;-0.004;0.000;
20190908_091908;-0.029;9.280;-2.337;0.001;-0.000;0.001;
20190908_091908;-0.041;9.179;-2.619;0.007;-0.004;-0.001;
20190908_091908;0.180;9.143;-2.227;-0.002;-0.000;-0.001;
20190908_091908;0.182;9.213;-2.547;0.005;-0.005;0.001;
20190908_091908;0.338;9.304;-2.444;-0.004;-0.002;0.000;
20190908_091909;0.230;9.467;-2.478;-0.004;0.001;0.003;
20190908_091909;0.249;9.371;-2.207;0.000;-0.000;0.001;
20190908_091909;0.184;9.653;-2.385;-0.005;-0.002;0.003;
20190908_091909;0.175;9.194;-2.167;-0.004;-0.002;0.001;
20190908_091909;0.223;9.323;-1.927;-0.005;-0.000;0.001;
20190908_091909;0.259;9.323;-2.418;-0.006;-0.002;0.001;
20190908_091909;0.479;9.407;-2.351;0.012;-0.006;-0.002;
20190908_091909;0.421;9.285;-2.617;0.013;-0.004;0.004;
20190908_091909;0.285;9.081;-2.428;0.001;-0.003;0.001;
20190908_091909;0.251;9.313;-2.349;0.004;-0.003;0.001;
20190908_091910;0.091;9.366;-2.404;0.001;-0.002;0.000;
20190908_091910;0.278;9.366;-2.274;0.001;-0.002;0.000;
20190908_091910;0.261;9.577;-2.485;-0.002;-0.004;-0.002;
20190908_091910;0.287;9.503;-2.315;0.003;-0.006;0.000;
20190908_091910;0.409;10.003;-2.224;-0.005;-0.002;0.000;
20190908_091910;0.263;9.383;-2.461;-0.005;-0.005;0.000;
20190908_091910;0.079;9.787;-2.162;0.007;-0.000;0.004;
20190908_091910;0.175;9.713;-2.368;-0.016;-0.000;0.004;
20190908_091910;0.110;9.349;-2.459;0.005;-0.004;0.003;
20190908_091911;0.273;9.445;-2.279;-0.002;0.001;0.005;
20190908_091911;0.445;9.187;-2.433;0.008;-0.005;0.001;
20190908_091911;0.340;9.438;-2.181;-0.002;-0.002;0.004;
20190908_091911;0.225;9.495;-2.397;0.005;-0.005;0.000;
20190908_091911;0.074;9.708;-2.433;0.012;-0.005;0.000;
20190908_091911;0.302;9.517;-2.519;0.005;-0.004;-0.002;
20190908_091911;0.414;9.534;-2.375;0.008;-0.005;0.000;
20190908_091911;0.381;9.591;-2.387;-0.002;-0.005;0.000;
20190908_091911;0.280;9.455;-2.464;0.007;-0.006;0.000;
20190908_091911;0.163;9.579;-2.227;-0.007;-0.002;0.004;
20190908_091912;0.156;9.261;-2.413;-0.005;0.001;0.004;
20190908_091912;0.069;9.234;-2.519;0.008;-0.004;0.000;
20190908_091912;0.350;9.206;-2.370;0.012;-0.004;0.003;
20190908_091912;0.476;10.034;-2.555;0.014;-0.004;-0.002;
20190908_091912;0.493;9.632;-2.564;0.010;-0.006;0.000;
20190908_091912;0.479;10.139;-2.634;-0.004;-0.003;0.003;
20190908_091912;0.215;10.084;-2.404;0.001;-0.004;0.003;
20190908_091912;0.189;9.826;-2.248;-0.011;-0.003;-0.001;
20190908_091912;0.206;9.215;-2.385;0.002;-0.004;0.003;
20190908_091913;0.177;9.273;-2.272;-0.009;0.002;-0.001;
20190908_091913;0.414;9.232;-2.059;0.001;-0.000;-0.001;
20190908_091913;0.520;9.086;-2.593;0.013;-0.004;-0.002;
20190908_091913;0.503;9.543;-2.449;0.004;-0.004;-0.001;
20190908_091913;0.457;9.651;-2.370;-0.003;-0.003;0.000;
20190908_091913;0.271;9.670;-2.318;-0.001;-0.003;0.000;
20190908_091913;0.189;9.862;-2.610;0.001;-0.002;0.001;
20190908_091913;0.163;9.742;-2.210;-0.004;-0.004;0.001;
20190908_091913;0.371;9.503;-2.404;-0.003;-0.000;0.006;
20190908_091913;0.220;9.440;-2.229;-0.002;-0.003;0.003;
20190908_091914;0.357;9.541;-2.121;-0.005;-0.000;0.006;
20190908_091914;0.397;9.388;-2.421;-0.003;-0.000;0.004;
20190908_091914;0.290;9.615;-2.478;0.009;-0.003;0.001;
20190908_091914;0.357;9.388;-2.416;0.005;-0.003;-0.001;
20190908_091914;0.407;9.464;-2.404;0.000;-0.002;-0.001;
20190908_091914;0.278;9.555;-2.354;-0.002;-0.003;-0.002;
20190908_091914;0.333;9.840;-2.327;-0.004;-0.003;-0.003;
20190908_091914;0.237;9.713;-2.389;-0.004;-0.003;-0.003;
20190908_091914;0.239;9.457;-2.452;-0.006;-0.003;-0.002;
20190908_091915;0.271;9.280;-2.121;-0.011;-0.000;-0.001;
20190908_091915;0.146;9.512;-2.136;-0.012;0.003;0.001;
20190908_091915;0.342;9.713;-2.576;0.003;-0.002;0.000;
20190908_091915;0.287;9.773;-2.806;0.014;-0.006;-0.001;
20190908_091915;0.294;9.646;-2.265;-0.005;-0.003;0.000;
20190908_091915;0.122;9.500;-2.409;0.008;-0.004;-0.002;
20190908_091915;0.072;9.244;-2.478;0.004;-0.006;-0.003;
20190908_091915;0.237;9.297;-2.423;0.012;-0.005;-0.004;
20190908_091915;0.546;9.756;-2.162;0.004;-0.000;-0.001;
20190908_091915;0.383;9.574;-2.385;0.003;-0.004;-0.003;
20190908_091916;0.326;9.922;-2.389;-0.001;0.001;0.003;
20190908_091916;0.050;9.579;-2.301;0.000;-0.004;0.000;
20190908_091916;0.105;9.191;-2.291;-0.011;0.003;-0.001;
20190908_091916;0.204;9.043;-2.552;-0.003;-0.000;0.001;
20190908_091916;0.175;8.950;-2.488;0.004;-0.000;-0.002;
20190908_091916;0.294;9.706;-2.356;-0.001;-0.002;-0.001;
20190908_091916;0.275;9.543;-2.507;0.004;-0.003;0.001;
20190908_091916;0.242;9.740;-2.473;0.003;-0.000;0.003;
20190908_091916;0.158;9.519;-2.344;-0.005;-0.002;0.001;
20190908_091917;0.254;9.220;-2.330;0.000;-0.002;0.000;
20190908_091917;0.108;9.378;-2.430;0.003;0.001;0.001;
20190908_091917;0.230;9.155;-2.097;-0.012;0.003;-0.002;
20190908_091917;0.455;9.414;-2.485;0.011;-0.002;-0.001;
20190908_091917;0.369;9.486;-2.523;0.020;-0.005;-0.002;
20190908_091917;0.342;9.764;-2.344;-0.007;-0.000;-0.001;
20190908_091917;0.256;9.407;-2.368;-0.003;-0.000;-0.001;
20190908_091917;0.168;9.476;-2.239;-0.006;0.002;-0.001;
20190908_091917;0.192;9.311;-2.093;-0.002;0.001;-0.004;
20190908_091917;0.263;9.170;-2.198;-0.007;0.004;0.000;
20190908_091918;0.101;9.002;-2.205;-0.007;0.005;-0.003;
20190908_091918;0.196;9.227;-2.382;0.013;0.003;-0.002;
20190908_091918;0.290;9.270;-2.447;0.004;0.001;-0.002;
20190908_091918;0.232;9.816;-2.547;0.010;0.002;-0.003;
20190908_091918;0.287;9.692;-2.579;-0.002;0.001;-0.002;
20190908_091918;0.302;9.438;-2.294;0.014;-0.000;0.000;
20190908_091918;0.309;9.610;-2.500;-0.007;-0.000;-0.001;
20190908_091918;0.153;9.366;-2.251;-0.001;-0.000;-0.002;
20190908_091918;0.038;9.608;-2.368;-0.006;0.004;-0.001;
20190908_091919;0.318;9.098;-2.308;0.007;0.003;-0.002;
20190908_091919;0.271;9.579;-2.765;0.011;0.004;0.001;
20190908_091919;0.362;9.515;-2.243;-0.014;0.005;-0.002;
20190908_091919;0.340;9.333;-2.595;0.001;0.004;0.000;
20190908_091919;0.371;9.402;-2.406;-0.012;0.005;0.000;
20190908_091919;0.342;9.488;-2.758;0.003;-0.003;-0.002;
20190908_091919;0.180;9.380;-2.418;-0.008;0.006;0.000;
20190908_091919;0.120;9.292;-2.593;0.009;-0.002;-0.002;
20190908_091919;0.134;9.151;-2.401;0.005;0.002;0.000;
20190908_091919;0.012;9.191;-2.399;-0.002;0.003;-0.003;
20190908_091920;0.156;9.591;-2.461;0.016;0.003;0.000;
20190908_091920;0.156;9.584;-2.351;-0.005;0.001;-0.004;
20190908_091920;0.292;9.996;-2.674;0.010;0.002;-0.002;
20190908_091920;0.256;9.814;-2.315;-0.005;0.002;-0.002;
20190908_091920;0.328;9.732;-2.456;0.001;-0.000;0.000;
20190908_091920;0.165;10.151;-2.461;-0.014;0.001;0.000;
20190908_091920;0.163;9.869;-2.263;-0.011;0.003;0.000;
20190908_091920;0.122;10.082;-2.535;0.007;-0.002;0.000;
20190908_091920;0.084;9.708;-2.430;-0.002;0.002;0.000;
20190908_091921;0.029;9.517;-2.421;-0.001;0.002;-0.001;
20190908_091921;0.144;9.776;-2.528;0.002;0.001;-0.001;
20190908_091921;0.158;9.538;-2.468;-0.001;0.002;-0.003;
20190908_091921;0.287;9.929;-2.377;0.001;0.001;-0.002;
20190908_091921;0.259;9.828;-2.368;0.001;-0.000;-0.002;
20190908_091921;0.165;9.845;-2.392;-0.017;0.004;-0.002;
20190908_091921;0.127;9.246;-2.370;-0.012;0.002;-0.003;
20190908_091921;0.129;9.165;-2.576;0.001;0.002;-0.002;
20190908_091921;0.199;9.656;-2.157;-0.008;0.003;-0.002;
20190908_091921;0.271;9.706;-2.471;0.001;0.003;-0.002;
20190908_091922;0.366;9.488;-2.358;0.004;0.002;-0.002;
20190908_091922;0.338;9.467;-2.437;0.004;0.004;0.001;
20190908_091922;0.048;9.349;-2.334;-0.002;0.003;-0.002;
20190908_091922;0.002;9.737;-2.559;0.023;-0.002;-0.001;
20190908_091922;0.153;9.143;-2.296;-0.014;0.006;-0.002;
20190908_091922;0.242;9.589;-2.411;0.012;-0.000;-0.003;
20190908_091922;0.311;9.802;-2.105;-0.014;0.006;-0.001;
20190908_091922;0.237;9.275;-2.224;0.012;-0.002;-0.002;
20190908_091922;0.311;9.361;-2.231;-0.011;0.003;-0.001;
20190908_091923;0.110;9.586;-2.128;-0.001;0.002;-0.002;
20190908_091923;0.120;10.127;-2.626;0.001;0.002;0.000;
20190908_091923;0.165;9.625;-2.320;-0.006;0.001;-0.004;
20190908_091923;0.139;9.443;-2.557;0.010;0.001;-0.001;
20190908_091923;0.311;9.160;-2.291;0.000;0.001;-0.005;
20190908_091923;0.275;9.845;-2.380;0.005;0.002;-0.003;
20190908_091923;0.105;9.653;-2.528;0.004;-0.002;-0.004;
20190908_091923;0.079;9.505;-2.248;-0.003;0.002;-0.003;
20190908_091923;0.165;9.160;-2.320;-0.014;0.006;-0.001;
20190908_091924;0.022;9.352;-2.456;-0.012;0.004;0.001;
20190908_091924;0.139;9.177;-1.832;-0.013;0.004;0.000;
20190908_091924;0.141;9.960;-2.454;0.001;0.003;0.004;
20190908_091924;0.302;9.498;-2.219;-0.014;0.003;0.004;
20190908_091924;0.306;9.730;-2.306;-0.003;0.003;0.004;
20190908_091924;0.345;9.577;-2.231;-0.006;0.003;0.000;
20190908_091924;0.393;9.795;-2.466;0.005;-0.002;-0.001;
20190908_091924;0.378;9.886;-2.413;-0.002;-0.002;-0.002;
20190908_091924;0.211;9.615;-2.277;0.008;-0.003;-0.002;
20190908_091924;0.144;9.857;-2.713;0.004;-0.005;-0.003;
20190908_091925;0.122;9.783;-2.782;0.013;-0.005;-0.003;
20190908_091925;0.378;9.457;-2.425;-0.001;-0.002;0.000;
20190908_091925;0.139;10.168;-2.638;0.011;-0.004;0.001;
20190908_091925;-0.172;9.493;-2.459;0.002;-0.005;0.000;
20190908_091925;0.096;10.192;-2.547;0.008;-0.004;0.003;
20190908_091925;0.431;9.814;-2.370;-0.007;-0.003;-0.001;
20190908_091925;0.364;9.483;-2.356;0.004;-0.002;-0.002;
20190908_091925;0.254;9.452;-2.260;-0.001;-0.000;-0.002;
20190908_091925;0.283;9.613;-2.167;0.000;-0.003;-0.003;
20190908_091926;0.182;9.606;-2.138;0.001;-0.003;-0.001;
20190908_091926;0.089;9.553;-2.377;0.008;-0.003;-0.001;
20190908_091926;0.067;9.725;-2.258;-0.004;-0.002;0.000;
20190908_091926;0.168;9.395;-2.557;0.003;-0.003;0.001;
20190908_091926;0.160;9.553;-2.222;0.004;-0.002;0.000;
20190908_091926;0.208;9.364;-2.619;0.005;-0.002;0.003;
20190908_091926;0.309;9.376;-2.452;-0.013;-0.002;-0.001;
20190908_091926;0.352;9.579;-2.416;-0.003;-0.000;0.001;
20190908_091926;0.237;9.558;-2.356;-0.003;-0.002;0.000;
20190908_091927;0.323;9.840;-2.466;0.004;-0.004;-0.001;
20190908_091927;0.192;9.503;-2.399;0.001;-0.002;0.000;
20190908_091927;0.017;9.565;-2.358;0.002;-0.002;0.000;
20190908_091927;0.139;9.354;-2.284;-0.001;-0.003;0.001;
20190908_091927;0.007;9.052;-2.267;-0.015;0.001;0.001;
20190908_091927;0.134;9.349;-2.385;-0.001;0.001;0.001;
20190908_091927;0.089;9.649;-2.696;0.003;-0.004;-0.001;
20190908_091927;0.326;9.493;-2.227;-0.009;-0.000;-0.001;
20190908_091927;0.378;9.596;-2.849;0.014;-0.005;0.001;
20190908_091928;0.481;9.895;-1.923;-0.015;-0.002;-0.002;
20190908_091928;0.455;10.120;-2.583;-0.006;-0.000;0.003;
20190908_091928;0.345;9.426;-2.306;-0.002;-0.004;0.000;
20190908_091928;0.350;9.867;-2.404;0.002;-0.002;0.003;
20190908_091928;0.292;9.668;-2.418;-0.006;-0.003;0.000;
20190908_091928;0.278;10.025;-2.576;0.007;-0.003;0.001;
20190908_091928;0.136;10.087;-2.540;0.005;-0.005;0.000;
20190908_091928;0.302;10.039;-2.674;0.010;-0.005;0.000;
20190908_091928;0.467;10.108;-2.488;0.004;-0.003;0.003;
20190908_091928;0.373;9.953;-2.411;-0.004;-0.002;-0.001;
20190908_091929;0.373;10.060;-2.406;0.001;-0.004;0.003;
20190908_091929;0.299;9.795;-2.538;0.000;-0.002;0.000;
20190908_091929;-0.007;9.862;-2.555;-0.001;-0.003;0.000;
20190908_091929;0.043;9.740;-2.370;-0.002;-0.002;-0.001;
20190908_091929;0.029;9.400;-2.387;-0.002;-0.004;-0.001;
20190908_091929;0.113;9.759;-2.512;0.003;-0.000;0.001;
20190908_091929;0.062;9.488;-2.464;0.000;-0.005;-0.002;
20190908_091929;0.129;9.586;-2.377;0.004;-0.005;-0.001;
20190908_091929;0.177;9.316;-2.397;-0.003;-0.002;0.000;
20190908_091930;0.067;9.653;-2.330;-0.003;-0.002;0.001;
20190908_091930;0.079;9.290;-2.478;0.001;-0.002;0.003;
20190908_091930;0.067;9.424;-2.406;0.004;-0.002;0.000;
20190908_091930;0.213;9.196;-2.205;-0.006;0.001;0.000;
20190908_091930;0.189;9.577;-2.339;-0.002;-0.003;-0.001;
20190908_091930;0.283;8.952;-2.260;-0.001;-0.004;-0.003;
20190908_091930;0.407;9.550;-2.471;-0.002;-0.002;-0.003;
20190908_091930;0.419;9.313;-2.325;-0.002;-0.002;-0.003;
20190908_091930;0.393;9.321;-2.440;0.000;-0.002;-0.002;
20190908_091930;0.268;9.670;-2.265;-0.008;0.002;-0.002;
20190908_091931;0.215;9.400;-2.447;0.009;0.001;-0.001;
20190908_091931;0.225;9.210;-2.303;0.003;0.002;0.001;
20190908_091931;0.060;9.543;-2.164;0.000;0.001;0.000;
20190908_091931;0.333;9.517;-2.298;0.001;-0.000;0.001;
20190908_091931;0.098;9.922;-2.461;0.008;-0.002;0.001;
20190908_091931;0.132;9.656;-2.535;-0.003;-0.003;-0.002;
20190908_091931;0.194;9.550;-2.562;-0.001;0.001;0.001;
20190908_091931;0.132;9.562;-2.361;0.002;-0.002;-0.001;
20190908_091931;0.129;9.395;-2.509;0.002;-0.000;-0.001;
20190908_091932;0.115;9.543;-2.425;0.005;-0.000;0.001;
20190908_091932;0.010;9.665;-2.116;-0.007;0.003;-0.002;
20190908_091932;-0.002;9.632;-2.397;0.003;0.001;0.001;
20190908_091932;-0.002;8.997;-2.277;-0.004;0.001;0.000;
20190908_091932;-0.045;9.093;-2.313;0.009;-0.000;0.001;
20190908_091932;0.172;9.424;-2.373;-0.009;0.002;0.001;
20190908_091932;0.163;9.426;-2.236;0.012;0.001;0.001;
20190908_091932;0.065;9.424;-2.373;0.005;-0.002;0.001;
20190908_091932;0.263;9.210;-2.327;-0.002;-0.000;-0.001;
20190908_091933;0.273;9.562;-2.476;0.003;-0.000;-0.003;
20190908_091933;0.213;9.395;-2.260;0.009;0.001;-0.002;
20190908_091933;0.350;9.225;-2.813;-0.005;-0.002;-0.004;
20190908_091933;0.326;9.330;-2.251;0.016;-0.002;-0.002;
20190908_091933;0.220;9.175;-2.356;-0.012;0.003;-0.004;
20190908_091933;0.151;9.244;-2.413;0.009;-0.003;-0.003;
20190908_091933;0.153;9.428;-2.258;-0.003;0.001;-0.003;
20190908_091933;0.244;9.134;-2.303;0.000;0.001;-0.002;
20190908_091933;0.239;9.354;-2.365;-0.003;0.002;-0.001;
20190908_091933;0.261;9.297;-2.310;0.003;0.001;-0.002;
20190908_091934;0.199;9.179;-2.234;-0.004;0.003;-0.001;
20190908_091934;0.148;9.440;-2.227;-0.004;-0.000;-0.004;
20190908_091934;0.182;9.601;-2.322;0.002;0.001;-0.002;
20190908_091934;0.294;8.971;-2.284;-0.002;0.003;-0.003;
20190908_091934;0.369;9.215;-2.650;0.017;-0.000;0.000;
20190908_091934;0.199;9.804;-2.734;-0.001;-0.002;-0.004;
20190908_091934;0.218;9.917;-2.497;0.005;0.002;-0.002;
20190908_091934;0.184;9.826;-2.662;0.008;0.001;-0.001;
20190908_091934;0.306;9.665;-2.454;0.000;0.003;0.000;
20190908_091935;0.175;9.610;-2.385;-0.004;0.002;0.000;
20190908_091935;0.201;9.711;-2.528;-0.003;-0.003;-0.001;
20190908_091935;0.213;9.749;-2.294;0.016;-0.000;0.001;
20190908_091935;0.237;9.692;-2.356;-0.012;0.006;0.001;
20190908_091935;0.182;9.819;-2.602;0.005;-0.003;0.000;
20190908_091935;0.239;9.598;-2.354;-0.011;0.004;0.001;
20190908_091935;0.204;9.388;-2.504;0.010;-0.003;0.000;
20190908_091935;0.146;9.708;-2.705;0.001;-0.000;-0.001;
20190908_091935;0.199;9.536;-2.184;-0.004;-0.000;0.000;
20190908_091935;0.254;9.778;-2.373;0.013;-0.000;-0.002;
20190908_091936;0.280;9.440;-2.495;0.004;0.001;-0.002;
20190908_091936;0.218;9.450;-2.346;-0.001;0.001;-0.005;
20190908_091936;0.318;9.615;-2.612;0.000;0.001;0.000;
20190908_091936;0.124;9.668;-2.346;0.002;-0.000;-0.003;
20190908_091936;0.165;9.620;-2.385;0.002;-0.002;0.000;
20190908_091936;0.108;9.436;-2.107;-0.013;0.004;0.000;
20190908_091936;-0.038;9.730;-2.406;0.008;0.002;-0.001;
20190908_091936;0.038;9.318;-2.342;0.003;0.001;0.000;
20190908_091936;0.122;9.713;-2.430;-0.001;0.001;0.001;
20190908_091937;0.297;9.359;-2.507;-0.003;-0.000;0.003;
20190908_091937;0.153;9.869;-2.368;0.001;0.001;0.001;
20190908_091937;0.098;9.723;-2.763;0.016;-0.002;0.001;
20190908_091937;0.091;9.804;-2.301;-0.003;0.001;0.001;
20190908_091937;0.141;9.831;-2.729;0.002;0.001;-0.001;
20190908_091937;0.259;9.615;-2.365;-0.006;-0.000;0.001;
20190908_091937;0.292;9.359;-2.409;0.002;0.001;0.001;
20190908_091937;0.196;9.524;-2.449;-0.002;-0.002;-0.001;
20190908_091937;0.227;9.888;-2.449;-0.006;0.001;-0.001;
20190908_091937;0.220;9.936;-2.521;0.011;-0.004;-0.001;
20190908_091938;0.187;9.701;-2.459;0.008;-0.004;-0.001;
20190908_091938;0.022;9.586;-2.370;-0.006;-0.000;-0.002;
20190908_091938;0.108;9.890;-2.447;0.008;-0.004;-0.002;
20190908_091938;0.180;9.297;-2.526;0.007;-0.002;0.000;
20190908_091938;0.158;9.385;-2.418;0.000;0.001;0.000;
20190908_091938;0.271;9.340;-2.406;0.000;-0.000;0.000;
20190908_091938;0.247;9.278;-2.327;0.000;-0.003;0.000;
20190908_091938;0.395;9.589;-2.588;0.000;0.002;0.000;
20190908_091938;0.263;9.404;-2.540;-0.003;0.002;0.000;
20190908_091939;0.213;9.888;-2.162;-0.002;0.002;-0.002;
20190908_091939;0.098;9.285;-2.234;-0.008;0.001;-0.001;
20190908_091939;0.184;9.347;-2.478;0.009;-0.000;-0.001;
20190908_091939;0.400;9.476;-2.387;-0.003;-0.000;0.000;
20190908_091939;0.292;9.431;-2.363;0.003;-0.002;0.000;
20190908_091939;0.055;9.562;-2.370;0.001;0.001;0.001;
20190908_091939;-0.012;9.210;-2.337;0.005;-0.000;-0.001;
20190908_091939;0.122;9.792;-2.294;-0.008;0.004;0.000;
20190908_091939;0.129;9.517;-2.301;-0.002;-0.002;-0.003;
20190908_091940;0.285;9.304;-2.380;-0.004;-0.000;-0.001;
20190908_091940;0.156;9.510;-2.368;0.001;-0.002;-0.002;
20190908_091940;0.328;9.033;-2.131;-0.011;0.002;0.000;
20190908_091940;0.218;9.708;-2.430;-0.003;0.001;0.000;
20190908_091940;0.275;9.550;-2.279;-0.014;0.003;0.000;
20190908_091940;0.215;9.577;-2.452;0.003;-0.000;0.000;
20190908_091940;0.127;9.479;-2.318;-0.004;0.002;0.000;
20190908_091940;0.249;9.625;-2.421;0.008;-0.002;-0.001;
20190908_091940;0.218;9.428;-2.368;0.000;0.001;0.000;
20190908_091940;0.249;9.622;-2.392;-0.001;0.002;0.000;
20190908_091941;0.093;9.799;-2.409;-0.004;-0.000;-0.001;
20190908_091941;0.093;9.615;-2.459;-0.006;-0.000;0.000;
20190908_091941;0.055;9.488;-2.315;-0.002;0.001;0.000;
20190908_091941;0.069;9.675;-2.598;-0.002;0.001;0.000;
20190908_091941;0.151;9.481;-2.272;0.004;0.001;0.003;
20190908_091941;-0.012;9.598;-2.375;-0.004;0.001;-0.001;
20190908_091941;0.206;9.469;-2.519;0.007;0.001;0.004;
20190908_091941;0.237;9.141;-2.198;0.004;0.002;-0.001;
20190908_091941;0.144;9.206;-2.519;0.005;0.001;-0.001;
20190908_091941;0.000;9.131;-2.358;-0.001;0.001;-0.003;
20190908_091942;0.072;9.215;-2.497;0.007;0.002;-0.003;
20190908_091942;-0.019;9.292;-2.346;-0.001;0.002;-0.003;
20190908_091942;0.110;9.258;-2.478;0.002;-0.000;-0.002;
20190908_091942;-0.050;9.500;-2.286;-0.001;0.001;-0.001;
20190908_091942;0.376;9.548;-2.734;0.013;-0.004;-0.001;
20190908_091942;0.211;9.754;-2.380;0.000;-0.000;0.000;
20190908_091942;0.101;9.574;-2.387;-0.004;-0.002;-0.002;
20190908_091942;0.086;9.541;-2.389;0.003;-0.002;0.001;
20190908_091942;0.306;9.179;-2.272;-0.006;0.001;0.000;
20190908_091943;0.290;9.546;-2.172;-0.004;0.002;-0.001;
20190908_091943;0.223;9.646;-2.672;0.000;0.001;0.000;
20190908_091943;0.235;9.589;-2.533;0.007;0.001;0.001;
20190908_091943;0.199;9.924;-2.363;0.003;0.001;0.004;
20190908_091943;0.115;9.591;-2.507;-0.009;0.002;0.001;
20190908_091943;0.077;9.474;-2.598;-0.002;0.003;0.005;
20190908_091943;0.014;9.151;-2.186;-0.007;0.003;0.003;
20190908_091943;0.122;9.378;-2.380;0.012;0.001;0.003;
20190908_091943;0.287;9.481;-2.401;-0.002;-0.000;-0.001;
20190908_091943;0.393;9.895;-2.411;0.008;-0.002;-0.002;
20190908_091944;0.378;10.027;-2.720;0.007;-0.000;-0.002;
20190908_091944;0.213;9.711;-2.425;-0.002;0.001;-0.002;
20190908_091944;0.136;9.536;-2.342;-0.002;0.001;-0.003;
20190908_091944;0.139;9.079;-2.447;0.008;-0.000;-0.001;
20190908_091944;0.249;9.469;-2.210;-0.006;0.004;0.003;
20190908_091944;0.165;9.311;-2.471;0.000;0.001;0.000;
20190908_091944;0.330;9.989;-2.466;-0.002;0.004;0.004;
20190908_091944;0.208;9.637;-2.562;-0.008;-0.000;0.001;
20190908_091944;0.251;9.682;-2.186;-0.001;0.003;0.003;
20190908_091945;0.127;9.493;-2.401;0.002;0.003;0.000;
20190908_091945;0.192;9.385;-2.346;0.011;0.001;-0.001;
20190908_091945;0.311;9.452;-2.516;0.007;0.002;0.001;
20190908_091945;0.074;9.299;-2.296;-0.002;0.003;-0.001;
20190908_091945;0.201;9.467;-2.509;-0.001;0.001;-0.002;
20190908_091945;0.239;9.191;-2.361;-0.011;0.003;-0.002;
20190908_091945;0.237;9.261;-2.330;-0.002;0.002;-0.001;
20190908_091945;0.134;9.254;-2.480;0.004;0.002;-0.001;
20190908_091945;0.091;9.527;-2.325;0.001;0.001;-0.002;
20190908_091946;0.373;9.797;-2.449;0.004;-0.000;-0.004;
20190908_091946;0.215;9.649;-2.543;0.013;-0.000;-0.003;
20190908_091946;0.244;9.143;-2.025;-0.006;0.002;-0.003;
20190908_091946;0.227;8.978;-2.361;0.002;0.002;-0.001;
20190908_091946;0.120;9.680;-2.332;0.000;0.002;-0.002;
20190908_091946;0.043;9.419;-2.461;0.007;0.003;-0.003;
20190908_091946;0.002;9.787;-2.777;0.015;-0.002;-0.001;
20190908_091946;0.005;9.438;-2.207;-0.013;0.003;-0.002;
20190908_091946;0.084;9.902;-2.686;0.012;-0.002;-0.002;
20190908_091946;0.177;9.603;-2.322;-0.008;0.001;-0.002;
20190908_091947;0.230;9.287;-2.423;-0.001;0.003;-0.002;
20190908_091947;0.115;9.536;-2.507;-0.004;0.004;-0.002;
20190908_091947;0.290;9.143;-2.251;-0.004;0.001;-0.002;
20190908_091947;0.201;9.529;-2.219;0.002;0.001;0.001;
20190908_091947;0.081;9.256;-2.277;-0.009;0.004;-0.001;
20190908_091947;0.139;9.337;-2.483;0.003;0.002;0.003;
20190908_091947;0.333;9.424;-2.459;0.001;0.001;0.001;
20190908_091947;0.354;9.795;-2.337;0.000;0.003;0.001;
20190908_091947;-0.057;9.321;-2.461;-0.001;0.003;-0.001;
20190908_091948;-0.019;8.952;-2.186;-0.004;0.005;-0.002;
20190908_091948;-0.124;9.407;-2.248;0.014;0.002;-0.002;
20190908_091948;-0.069;9.318;-2.207;-0.012;0.002;-0.003;
20190908_091948;0.067;9.754;-2.416;0.001;0.001;0.000;
20190908_091948;0.342;9.474;-2.480;-0.003;-0.002;-0.002;
20190908_091948;0.225;9.376;-2.485;0.005;0.002;0.001;
20190908_091948;0.136;9.129;-2.308;-0.009;0.002;0.003;
20190908_091948;0.225;9.445;-2.138;-0.001;0.002;0.005;
20190908_091948;0.134;9.603;-2.332;0.007;-0.002;0.004;
20190908_091949;-0.022;9.493;-2.291;-0.002;-0.002;-0.003;
20190908_091949;0.132;9.708;-1.997;-0.012;0.002;0.000;
20190908_091949;0.153;8.911;-2.090;-0.008;-0.000;-0.002;
20190908_091949;0.352;9.627;-2.145;0.004;-0.000;-0.003;
20190908_091949;0.294;9.677;-2.545;0.003;-0.002;-0.004;
20190908_091949;0.215;9.412;-2.306;0.009;-0.003;-0.005;
20190908_091949;0.261;9.560;-2.124;0.008;0.002;0.000;
20190908_091949;0.043;9.347;-2.188;0.004;0.001;-0.001;
20190908_091949;0.041;9.685;-2.442;0.003;0.001;0.001;
20190908_091949;-0.007;9.610;-2.349;-0.001;0.002;0.001;
20190908_091950;0.117;9.651;-2.263;-0.009;0.002;0.000;
20190908_091950;0.091;9.151;-1.946;-0.009;0.002;0.000;
20190908_091950;0.285;9.395;-2.239;0.010;-0.000;-0.001;
20190908_091950;0.488;9.828;-2.071;-0.003;0.001;-0.001;
20190908_091950;0.419;9.823;-2.124;-0.009;0.003;-0.002;
20190908_091950;0.464;10.242;-2.270;0.010;-0.000;0.000;
20190908_091950;0.192;9.790;-2.265;-0.006;0.003;0.000;
20190908_091950;0.189;9.634;-2.296;0.013;0.001;0.004;
20190908_091950;-0.072;9.337;-2.148;0.002;0.002;0.003;
20190908_091951;-0.113;9.493;-2.464;0.007;-0.000;0.001;
20190908_091951;-0.048;9.421;-2.200;-0.004;0.003;0.001;
20190908_091951;0.115;9.562;-1.930;-0.011;0.004;-0.001;
20190908_091951;0.113;9.433;-2.184;-0.001;-0.002;0.000;
20190908_091951;0.227;9.613;-2.277;-0.003;0.001;-0.004;
20190908_091951;0.220;9.409;-2.157;0.008;0.002;-0.002;
20190908_091951;0.302;9.759;-2.128;-0.001;0.003;-0.003;
20190908_091951;0.230;9.756;-2.198;-0.004;0.001;-0.001;
20190908_091951;0.081;9.835;-2.195;0.000;0.003;0.001;
20190908_091951;0.120;9.641;-2.562;0.014;-0.002;-0.003;
20190908_091952;-0.022;9.586;-2.033;0.001;0.005;-0.003;
20190908_091952;-0.002;9.517;-2.449;0.011;-0.000;-0.003;
20190908_091952;-0.026;9.354;-2.090;0.004;0.001;-0.003;
20190908_091952;0.091;9.615;-2.270;0.005;0.003;-0.001;
20190908_091952;0.110;9.091;-2.212;-0.004;0.002;-0.001;
20190908_091952;0.134;9.969;-2.037;-0.014;0.005;0.001;
20190908_091952;0.177;9.347;-2.198;0.000;-0.002;0.001;
20190908_091952;0.235;10.139;-2.368;-0.003;0.003;0.004;
20190908_091952;0.168;9.641;-2.303;0.003;-0.000;0.004;
20190908_091952;0.304;9.649;-2.172;-0.001;0.004;0.001;
20190908_091953;0.192;9.761;-2.440;0.005;-0.002;0.001;
20190908_091953;0.271;9.627;-2.217;-0.007;0.002;-0.002;
20190908_091953;0.297;9.787;-2.253;0.005;0.001;-0.002;
20190908_091953;0.364;9.301;-2.260;0.002;0.002;-0.001;
20190908_091953;0.244;9.653;-2.428;0.019;-0.003;-0.003;
20190908_091953;0.103;9.828;-2.272;-0.002;0.003;-0.003;
20190908_091953;0.057;9.098;-2.100;0.001;0.004;-0.002;
20190908_091953;-0.134;9.771;-2.342;-0.008;0.002;-0.002;
20190908_091953;0.283;9.483;-2.095;0.001;-0.000;-0.002;
20190908_091954;0.215;9.555;-1.980;0.000;0.002;-0.002;
20190908_091954;0.196;9.531;-2.365;0.010;-0.003;-0.001;
20190908_091954;0.402;9.455;-2.140;-0.003;0.001;-0.002;
20190908_091954;0.429;9.591;-2.239;0.005;0.001;-0.001;
20190908_091954;0.450;9.641;-2.248;0.001;0.001;-0.001;
20190908_091954;0.323;9.917;-2.172;-0.004;0.002;-0.001;
20190908_091954;0.220;9.831;-2.430;0.004;-0.000;-0.001;
20190908_091954;0.168;9.641;-2.114;0.001;0.002;0.000;
20190908_091954;0.187;9.510;-2.313;0.003;0.001;0.000;
20190908_091954;0.144;9.388;-2.251;0.002;0.003;-0.001;
20190908_091955;0.127;9.776;-2.373;0.007;-0.000;-0.002;
20190908_091955;0.347;9.744;-2.253;-0.004;0.001;-0.001;
20190908_091955;0.323;9.613;-2.435;0.013;-0.002;-0.002;
20190908_091955;0.388;9.773;-2.083;-0.004;0.003;-0.003;
20190908_091955;0.237;9.694;-2.370;0.008;0.001;-0.002;
20190908_091955;0.153;9.586;-2.160;0.000;0.002;-0.003;
20190908_091955;0.371;9.787;-2.591;0.007;0.001;0.000;
20190908_091955;0.172;9.960;-2.040;-0.017;0.003;-0.002;
20190908_091955;0.330;9.708;-2.492;0.008;-0.002;-0.001;
20190908_091956;0.266;9.914;-1.994;-0.006;0.002;-0.004;
20190908_091956;0.273;9.448;-2.121;0.004;0.002;-0.002;
20190908_091956;0.201;9.847;-2.617;0.007;-0.003;-0.002;
20190908_091956;0.170;9.677;-2.409;-0.002;0.001;-0.001;
20190908_091956;-0.017;9.692;-2.289;0.009;-0.000;-0.002;
20190908_091956;0.122;9.469;-2.394;0.010;-0.000;0.001;
20190908_091956;-0.010;9.613;-2.265;-0.003;0.001;0.001;
20190908_091956;0.151;9.881;-2.236;-0.011;0.001;0.003;
20190908_091956;0.172;9.167;-2.327;-0.012;0.002;0.001;
20190908_091957;0.208;9.031;-2.011;-0.001;-0.000;0.000;
20190908_091957;0.201;9.120;-2.090;-0.016;0.003;0.001;
20190908_091957;0.318;9.127;-2.018;0.000;-0.003;-0.003;
20190908_091957;0.117;9.366;-2.303;0.013;-0.005;-0.002;
20190908_091957;0.318;9.203;-1.937;0.000;-0.000;-0.001;
20190908_091957;0.261;9.919;-2.339;0.008;-0.000;-0.002;
20190908_091957;0.170;9.620;-2.152;0.024;-0.004;-0.002;
20190908_091957;0.124;9.491;-2.236;-0.002;-0.000;-0.001;
20190908_091957;0.151;9.459;-2.222;0.011;-0.002;0.000;
20190908_091958;0.038;9.127;-2.339;-0.005;-0.000;-0.003;
20190908_091958;0.029;9.234;-2.140;-0.001;-0.002;-0.002;
20190908_091958;0.077;9.392;-2.083;-0.002;-0.002;-0.002;
20190908_091958;0.182;9.821;-2.071;0.000;-0.002;-0.003;
20190908_091958;0.244;9.203;-1.997;-0.004;0.001;-0.001;
20190908_091958;0.220;9.357;-2.203;0.013;-0.002;-0.002;
20190908_091958;0.091;9.256;-1.973;-0.004;0.002;-0.003;
20190908_091958;0.280;9.273;-2.172;0.014;-0.002;-0.003;
20190908_091958;0.206;9.601;-2.181;-0.007;0.003;0.000;
20190908_091958;0.141;9.495;-2.416;0.003;-0.002;0.003;
20190908_091959;0.230;9.498;-2.203;-0.009;0.004;0.004;
20190908_091959;0.342;9.668;-2.203;0.011;-0.000;0.001;
20190908_091959;0.127;9.378;-2.114;0.000;-0.000;0.001;
20190908_091959;0.204;9.199;-2.313;0.003;-0.003;-0.001;
20190908_091959;0.117;9.268;-2.150;-0.007;0.003;-0.001;
20190908_091959;0.230;9.203;-2.274;-0.002;-0.000;-0.003;
20190908_091959;0.259;9.388;-1.832;0.005;0.001;-0.001;
20190908_091959;0.309;9.093;-2.138;0.005;0.001;-0.002;
20190908_091959;0.290;9.041;-2.009;0.005;0.001;0.000;
20190908_092000;0.309;10.001;-2.093;-0.001;0.003;0.001;
20190908_092000;0.206;10.065;-2.234;0.007;-0.000;0.001;
20190908_092000;0.206;10.077;-2.045;0.005;0.001;0.004;
20190908_092000;0.163;9.778;-2.100;-0.016;0.005;0.004;
20190908_092000;0.065;9.483;-2.224;0.009;-0.000;-0.001;
20190908_092000;0.208;9.527;-1.956;-0.004;0.003;0.001;
20190908_092000;0.017;9.445;-2.093;-0.001;0.002;0.000;
20190908_092000;0.321;9.421;-2.272;0.002;0.002;-0.001;
20190908_092000;0.285;9.124;-2.045;-0.002;0.004;-0.001;
20190908_092000;0.393;9.234;-2.057;-0.004;0.004;-0.001;
20190908_092001;0.254;9.383;-2.174;0.008;0.002;0.000;
20190908_092001;0.180;9.256;-2.198;0.000;0.002;-0.002;
20190908_092001;0.077;9.335;-2.057;-0.004;0.005;0.003;
20190908_092001;-0.089;9.136;-2.478;0.001;0.002;-0.002;
20190908_092001;0.055;9.273;-2.160;-0.002;0.004;0.000;
20190908_092001;0.041;9.299;-2.313;0.000;0.003;-0.001;
20190908_092001;0.321;9.388;-2.114;-0.002;0.003;0.000;
20190908_092001;0.187;9.744;-2.018;-0.003;0.002;0.000;
20190908_092001;0.211;9.565;-2.215;-0.008;0.003;0.003;
20190908_092002;0.098;9.491;-2.042;0.007;0.001;0.001;
20190908_092002;0.268;9.086;-2.251;-0.006;0.004;0.001;
20190908_092002;0.242;9.515;-2.184;0.005;0.001;0.000;
20190908_092002;0.314;9.153;-2.334;-0.002;0.002;-0.001;
20190908_092002;0.350;9.802;-2.210;0.014;-0.000;0.001;
20190908_092002;0.165;9.620;-2.021;-0.013;0.005;0.000;
20190908_092002;0.077;9.495;-2.373;0.028;-0.003;0.001;
20190908_092002;0.045;9.500;-1.894;0.008;-0.000;0.001;
20190908_092002;0.309;9.342;-2.224;-0.012;0.005;0.000;
20190908_092002;0.283;10.056;-2.253;0.015;-0.002;0.000;
20190908_092003;0.517;9.898;-2.042;-0.018;0.005;0.001;
20190908_092003;0.132;9.677;-2.138;0.004;-0.000;-0.001;
20190908_092003;0.151;9.450;-2.009;-0.007;0.003;-0.001;
20190908_092003;0.000;8.962;-2.229;-0.009;0.005;-0.006;
20190908_092003;0.230;8.607;-2.370;0.027;-0.000;-0.005;
20190908_092003;0.407;9.787;-1.867;-0.003;0.005;-0.002;
20190908_092003;0.364;9.187;-2.167;0.016;-0.002;-0.002;
20190908_092003;0.215;9.857;-2.138;0.014;0.001;0.001;
20190908_092003;0.101;9.414;-1.915;-0.009;0.006;0.001;
20190908_092004;0.108;9.424;-2.411;0.005;0.001;0.000;
20190908_092004;0.251;9.685;-2.377;-0.009;0.005;-0.001;
20190908_092004;0.390;9.627;-2.195;0.010;0.002;0.000;
20190908_092004;0.342;9.804;-2.354;-0.006;0.001;-0.001;
20190908_092004;0.290;9.541;-2.078;-0.004;0.002;-0.004;
20190908_092004;0.175;9.591;-2.461;0.010;-0.002;-0.003;
20190908_092004;0.204;9.728;-2.095;-0.009;0.003;-0.004;
20190908_092004;0.184;9.627;-2.306;0.014;-0.003;-0.002;
20190908_092004;0.050;9.831;-2.234;0.004;0.002;0.000;
20190908_092005;0.139;9.512;-2.102;0.005;-0.000;0.000;
20190908_092005;0.163;9.713;-2.114;-0.009;0.004;0.001;
20190908_092005;0.146;9.347;-2.535;-0.006;-0.000;-0.001;
20190908_092005;0.204;9.811;-2.136;0.000;0.002;0.001;
20190908_092005;0.218;9.831;-2.677;0.008;-0.003;0.003;
20190908_092005;0.144;9.510;-1.994;-0.014;0.002;0.001;
20190908_092005;0.101;9.732;-2.507;0.011;0.001;0.003;
20190908_092005;0.237;9.024;-2.550;-0.006;-0.002;0.000;
20190908_092005;0.311;9.249;-2.337;0.023;-0.003;0.001;
20190908_092005;0.287;9.809;-2.095;-0.004;-0.003;0.001;
20190908_092006;0.223;9.543;-2.148;0.014;-0.002;0.001;
20190908_092006;0.141;9.651;-2.344;-0.009;-0.000;0.003;
20190908_092006;0.230;9.380;-2.215;0.007;-0.003;0.001;
20190908_092006;0.211;9.867;-2.210;-0.004;0.001;0.001;
20190908_092006;0.182;9.469;-2.260;-0.006;0.001;0.001;
20190908_092006;0.036;9.821;-2.363;0.017;-0.006;0.000;
20190908_092006;0.326;9.639;-2.303;-0.015;0.002;0.001;
20190908_092006;0.328;9.548;-2.435;-0.001;-0.003;0.004;
20190908_092006;0.254;9.347;-1.994;-0.007;0.002;0.004;
20190908_092007;0.129;9.086;-2.361;0.000;-0.002;0.003;
20190908_092007;0.074;9.500;-2.243;0.010;-0.002;-0.001;
20190908_092007;0.225;9.620;-2.406;0.007;-0.003;0.000;
20190908_092007;0.357;9.790;-2.521;0.009;-0.006;-0.003;
20190908_092007;0.450;9.787;-2.258;-0.003;-0.004;-0.001;
20190908_092007;0.242;9.390;-2.286;-0.001;-0.002;0.001;
20190908_092007;0.206;9.299;-2.069;0.008;-0.003;-0.001;
20190908_092007;0.165;9.191;-2.152;-0.006;0.001;0.000;
20190908_092007;0.122;9.807;-2.157;0.002;-0.000;0.000;
20190908_092007;0.196;9.931;-2.093;-0.005;0.002;0.001;
20190908_092008;0.266;9.469;-2.375;0.003;-0.003;0.000;
20190908_092008;0.251;9.874;-2.550;0.001;-0.000;0.003;
20190908_092008;0.251;9.445;-2.227;-0.001;0.001;0.003;
20190908_092008;0.148;9.354;-2.425;0.003;-0.002;0.000;
20190908_092008;0.160;9.448;-2.071;-0.013;0.002;0.001;
20190908_092008;0.141;9.407;-2.351;0.009;-0.003;0.000;
20190908_092008;0.172;9.457;-2.184;-0.006;-0.000;-0.001;
20190908_092008;0.182;9.155;-2.435;0.004;0.001;-0.002;
20190908_092008;0.146;9.270;-2.014;-0.004;0.001;-0.002;
20190908_092009;0.184;9.761;-2.624;0.011;-0.003;-0.001;
20190908_092009;0.405;9.632;-2.320;-0.009;-0.000;-0.002;
20190908_092009;0.366;9.500;-2.504;0.003;-0.000;0.003;
20190908_092009;0.215;9.146;-2.037;-0.018;0.003;-0.001;
20190908_092009;0.180;9.402;-2.327;0.011;-0.002;0.000;
20190908_092009;0.168;9.562;-2.380;-0.003;-0.002;0.001;
20190908_092009;0.247;9.756;-2.399;-0.007;-0.004;-0.002;
20190908_092009;0.134;9.936;-2.514;0.004;-0.002;0.000;
20190908_092009;0.271;9.244;-1.690;-0.018;0.001;-0.001;
20190908_092009;-0.060;9.517;-2.543;-0.006;-0.004;-0.003;
20190908_092010;0.213;9.261;-2.251;-0.016;-0.002;-0.003;
20190908_092010;0.316;9.261;-2.289;0.013;-0.003;-0.002;
20190908_092010;0.524;9.512;-1.997;-0.008;-0.003;0.003;
20190908_092010;0.297;9.720;-2.399;0.015;-0.005;0.001;
20190908_092010;0.362;9.527;-2.239;-0.003;-0.002;0.001;
20190908_092010;0.373;9.946;-2.737;0.013;-0.002;0.003;
20190908_092010;0.436;9.596;-2.188;0.003;-0.003;0.000;
20190908_092010;0.340;9.888;-2.193;-0.013;-0.000;0.003;
20190908_092010;0.134;9.723;-2.564;0.004;-0.005;0.000;
20190908_092011;0.273;9.191;-2.241;-0.007;-0.002;-0.001;
20190908_092011;0.215;9.335;-2.274;-0.005;-0.000;0.000;
20190908_092011;0.359;9.112;-2.270;0.000;-0.004;-0.004;
20190908_092011;0.474;9.560;-2.160;-0.005;-0.000;0.000;
20190908_092011;0.304;9.273;-2.433;0.008;-0.007;-0.001;
20190908_092011;0.350;9.742;-2.354;-0.008;-0.002;-0.001;
20190908_092011;0.129;9.479;-2.370;0.003;-0.004;-0.001;
20190908_092011;0.105;9.656;-2.267;-0.004;-0.002;-0.002;
20190908_092011;0.201;9.366;-2.641;0.004;-0.004;0.000;
20190908_092011;0.096;9.151;-2.471;-0.011;-0.000;-0.001;
20190908_092012;0.271;9.443;-2.308;-0.003;-0.002;0.000;
20190908_092012;0.225;9.347;-2.198;0.002;-0.004;-0.001;
20190908_092012;0.120;9.450;-2.454;-0.001;-0.002;0.000;
20190908_092012;0.206;9.364;-2.203;-0.002;-0.005;-0.001;
20190908_092012;0.187;9.325;-2.373;0.001;-0.003;-0.001;
20190908_092012;0.292;9.361;-2.346;0.000;-0.004;-0.003;
20190908_092012;0.290;9.572;-2.411;0.008;-0.004;-0.003;
20190908_092012;0.371;9.780;-2.466;0.004;-0.005;-0.001;
20190908_092012;0.338;9.543;-2.274;-0.002;-0.003;-0.002;
20190908_092013;0.218;9.438;-2.456;0.001;-0.003;-0.002;
20190908_092013;0.153;9.505;-2.236;-0.002;-0.002;-0.002;
20190908_092013;0.254;9.426;-2.540;0.014;-0.006;-0.004;
20190908_092013;0.359;9.426;-2.061;-0.006;-0.002;-0.005;
20190908_092013;0.263;9.349;-2.607;0.016;-0.008;-0.003;
20190908_092013;0.206;9.373;-1.920;-0.008;-0.002;-0.002;
20190908_092013;0.036;9.397;-2.488;0.002;-0.002;-0.003;
20190908_092013;0.110;9.172;-2.219;0.001;-0.002;-0.002;
20190908_092013;0.132;9.246;-2.598;0.012;-0.004;-0.001;
20190908_092013;0.271;9.428;-2.497;0.003;-0.002;0.001;
20190908_092014;0.134;9.369;-2.404;0.003;-0.003;0.003;
20190908_092014;-0.019;9.479;-2.195;-0.003;0.002;0.005;
20190908_092014;0.057;9.744;-2.571;0.000;-0.002;0.001;
20190908_092014;0.263;9.471;-2.289;0.000;0.001;0.001;
20190908_092014;0.294;9.883;-2.540;0.003;-0.002;0.001;
20190908_092014;0.469;9.538;-2.562;-0.011;-0.003;-0.002;
20190908_092014;0.462;9.787;-2.143;-0.017;0.003;0.001;
20190908_092014;0.225;9.349;-2.447;0.005;-0.005;-0.004;
20190908_092014;0.235;9.196;-2.105;0.000;-0.002;-0.003;
20190908_092015;0.244;9.100;-2.653;-0.004;0.003;-0.002;
20190908_092015;0.199;9.529;-2.406;0.016;-0.008;-0.003;
20190908_092015;0.235;9.934;-2.253;-0.007;0.002;0.001;
20190908_092015;0.043;9.426;-2.404;-0.005;-0.002;0.000;
20190908_092015;0.120;9.507;-2.523;-0.001;-0.000;0.001;
20190908_092015;0.136;9.495;-2.523;-0.005;-0.000;0.003;
20190908_092015;0.244;9.390;-2.193;0.002;0.001;0.005;
20190908_092015;0.108;9.895;-2.401;-0.004;-0.002;0.006;
20190908_092015;0.153;9.388;-2.200;-0.007;-0.002;0.004;
20190908_092015;0.182;9.249;-2.320;-0.001;0.001;0.001;
20190908_092016;0.280;9.134;-2.349;-0.003;0.001;0.001;
20190908_092016;0.438;9.412;-2.433;0.008;-0.003;-0.002;
20190908_092016;0.563;9.500;-2.198;0.004;-0.002;-0.002;
20190908_092016;0.520;9.634;-2.662;0.002;-0.004;-0.002;
20190908_092016;0.283;9.618;-2.270;-0.009;-0.003;-0.005;
20190908_092016;0.290;9.455;-2.569;0.007;-0.004;0.000;
20190908_092016;0.081;9.400;-2.181;-0.005;-0.000;-0.002;
20190908_092016;0.110;9.426;-2.552;0.001;-0.004;0.001;
20190908_092016;0.148;9.550;-2.370;0.009;-0.002;0.003;
20190908_092017;0.180;9.759;-2.263;-0.012;0.002;0.004;
20190908_092017;0.194;9.385;-2.246;-0.005;-0.000;0.004;
20190908_092017;0.129;9.685;-2.334;0.000;0.002;0.006;
20190908_092017;0.156;9.170;-2.406;0.000;-0.002;0.000;
20190908_092017;0.280;9.646;-2.413;0.008;-0.002;-0.001;
20190908_092017;0.433;9.673;-2.689;0.000;-0.003;-0.003;
20190908_092017;0.448;9.802;-2.373;-0.002;-0.003;-0.002;
20190908_092017;0.503;9.807;-2.535;-0.001;-0.004;0.000;
20190908_092017;0.455;9.720;-2.265;0.004;-0.003;-0.001;
20190908_092017;0.218;9.826;-2.246;-0.005;0.001;0.004;
20190908_092018;0.139;9.730;-2.404;0.002;-0.004;0.000;
20190908_092018;0.022;9.862;-2.401;-0.002;-0.000;0.003;
20190908_092018;0.141;9.783;-2.526;-0.003;0.001;0.003;
20190908_092018;0.318;9.644;-2.392;0.001;-0.003;-0.001;
20190908_092018;0.388;9.845;-2.765;-0.002;-0.000;0.001;
20190908_092018;0.342;9.246;-2.229;-0.002;-0.002;-0.001;
20190908_092018;0.184;9.661;-2.531;0.008;-0.004;-0.001;
20190908_092018;0.108;9.471;-2.255;-0.004;-0.002;0.000;
20190908_092018;0.294;9.438;-2.260;-0.002;-0.000;0.000;
20190908_092019;0.041;9.507;-2.286;-0.006;-0.000;0.000;
20190908_092019;0.235;9.469;-2.504;0.010;-0.003;0.001;
20190908_092019;0.237;9.414;-2.447;0.000;-0.000;0.003;
20190908_092019;0.347;9.828;-2.346;0.004;-0.000;0.000;
20190908_092019;0.299;9.469;-2.519;0.000;-0.000;0.000;
20190908_092019;0.175;9.713;-2.263;0.005;-0.002;-0.001;
20190908_092019;0.369;9.601;-2.358;-0.002;-0.002;-0.001;
20190908_092019;0.192;9.622;-2.406;-0.002;-0.000;-0.003;
20190908_092019;0.215;9.232;-2.346;-0.005;0.001;-0.001;
20190908_092020;0.218;9.603;-2.454;0.002;0.002;-0.001;
20190908_092020;0.278;9.361;-2.200;0.003;-0.000;-0.002;
20190908_092020;0.206;9.452;-2.480;0.017;-0.003;-0.002;
20190908_092020;0.278;9.378;-2.488;0.005;0.001;-0.001;
20190908_092020;0.201;9.222;-2.394;-0.003;-0.000;-0.004;
20190908_092020;0.132;9.701;-2.289;0.001;-0.000;0.000;
20190908_092020;0.182;9.538;-2.581;0.002;-0.004;-0.003;
20190908_092020;0.151;9.577;-2.078;-0.004;0.001;-0.001;
20190908_092020;0.292;9.948;-2.385;-0.004;0.001;-0.003;
20190908_092020;0.242;9.146;-2.421;-0.003;-0.000;-0.005;
20190908_092021;0.359;9.218;-2.444;-0.001;0.002;-0.004;
20190908_092021;0.417;9.421;-2.380;0.018;-0.003;-0.004;
20190908_092021;0.182;9.766;-2.433;-0.002;-0.004;-0.002;
20190908_092021;-0.151;9.522;-2.365;-0.003;-0.000;-0.002;
20190908_092021;-0.113;9.507;-2.303;0.003;-0.000;-0.002;
20190908_092021;0.096;9.450;-2.207;-0.009;0.004;0.001;
20190908_092021;0.182;9.210;-2.392;-0.001;0.002;-0.001;
20190908_092021;0.247;9.275;-2.322;0.000;0.002;0.000;
20190908_092021;0.235;9.426;-2.456;-0.002;0.002;-0.001;
20190908_092021;0.206;9.337;-2.306;0.003;0.001;-0.002;
20190908_092022;0.065;9.385;-2.373;-0.004;-0.000;-0.002;
20190908_092022;0.206;9.574;-2.682;-0.003;0.001;-0.002;
20190908_092022;0.249;9.177;-2.030;0.009;-0.000;-0.001;
20190908_092022;0.170;9.591;-2.351;0.003;0.001;0.001;
20190908_092022;0.096;9.476;-2.746;0.003;-0.000;0.000;
20190908_092022;0.091;9.409;-2.145;0.001;0.002;0.000;
20190908_092022;0.110;9.589;-2.480;-0.002;-0.000;0.000;
20190908_092022;0.187;9.989;-2.437;-0.009;0.002;-0.001;
20190908_092022;0.218;9.756;-2.734;0.012;-0.005;-0.002;
20190908_092023;0.187;9.914;-2.562;0.002;-0.004;0.000;
20190908_092023;0.163;9.414;-2.401;-0.017;-0.000;0.003;
20190908_092023;0.026;9.450;-1.956;0.005;0.001;0.000;
20190908_092023;0.189;9.366;-2.399;0.005;-0.000;0.000;
20190908_092023;0.031;9.182;-2.363;0.002;-0.000;-0.001;
20190908_092023;0.213;9.603;-2.327;-0.001;0.001;-0.001;
20190908_092023;0.141;9.488;-2.387;0.001;-0.002;0.001;
20190908_092023;0.287;9.907;-2.464;-0.006;-0.000;-0.002;
20190908_092023;0.261;9.220;-2.093;-0.003;-0.003;-0.001;
20190908_092024;0.306;9.491;-2.282;0.002;-0.003;-0.002;
20190908_092024;0.414;9.419;-1.951;-0.017;-0.000;0.001;
20190908_092024;0.311;9.323;-2.212;0.000;-0.004;-0.002;
20190908_092024;0.172;9.507;-2.097;0.004;-0.003;0.001;
20190908_092024;0.278;9.685;-2.152;-0.003;-0.002;0.000;
20190908_092024;0.225;9.874;-2.624;0.018;-0.005;-0.002;
20190908_092024;0.294;9.443;-2.203;0.007;-0.000;0.000;
20190908_092024;0.199;9.517;-1.997;0.012;-0.002;-0.001;
20190908_092024;0.294;9.680;-2.021;-0.002;0.001;-0.001;
20190908_092024;0.194;9.373;-2.296;0.000;-0.000;-0.002;
20190908_092025;0.275;9.436;-2.263;0.001;-0.000;-0.002;
20190908_092025;0.330;9.124;-2.167;0.001;0.001;-0.002;
20190908_092025;0.421;9.749;-2.167;0.003;0.002;0.001;
20190908_092025;0.326;9.723;-2.452;-0.002;-0.000;0.001;
20190908_092025;0.129;9.148;-1.812;-0.003;-0.002;-0.001;
20190908_092025;0.050;9.567;-1.901;-0.004;0.005;0.000;
20190908_092025;0.218;8.899;-2.279;0.004;-0.000;-0.005;
20190908_092025;0.472;9.196;-1.906;0.009;0.003;-0.003;
20190908_092025;0.462;9.586;-2.394;0.003;0.001;-0.003;
20190908_092025;0.627;9.780;-2.102;0.001;0.002;0.000;
20190908_092026;0.283;9.833;-2.504;0.004;-0.003;0.000;
20190908_092026;0.101;9.500;-1.875;-0.003;0.001;-0.001;
20190908_092026;0.139;9.359;-2.169;-0.011;0.002;0.000;
20190908_092026;0.304;9.345;-1.951;-0.001;-0.000;-0.001;
20190908_092026;0.275;9.620;-2.286;0.005;0.001;0.001;
20190908_092026;0.448;9.752;-2.236;0.001;-0.000;-0.001;
20190908_092026;0.318;9.644;-2.066;0.004;0.001;-0.002;
20190908_092026;0.316;9.653;-2.231;0.005;0.001;0.000;
20190908_092026;0.103;9.720;-2.030;-0.001;0.002;0.001;
20190908_092027;0.060;9.560;-2.093;0.005;-0.000;0.000;
20190908_092027;0.029;9.481;-2.188;-0.001;0.002;0.000;
20190908_092027;0.235;9.498;-2.002;-0.003;0.003;0.004;
20190908_092027;0.326;9.357;-2.064;-0.009;0.003;0.001;
20190908_092027;0.290;9.431;-2.002;-0.005;0.004;0.003;
20190908_092027;0.251;9.407;-2.164;0.002;0.003;0.000;
20190908_092027;0.268;9.625;-1.987;0.000;0.002;-0.001;
20190908_092027;0.424;9.572;-2.361;0.010;-0.000;-0.001;
20190908_092027;0.215;10.116;-2.006;0.004;0.001;-0.001;
20190908_092028;0.038;9.864;-2.282;0.004;0.001;0.001;
20190908_092028;0.134;9.797;-2.172;0.005;-0.000;0.000;
20190908_092028;0.065;9.823;-2.035;0.002;0.003;0.003;
20190908_092028;0.158;9.340;-2.083;-0.009;0.003;-0.001;
20190908_092028;0.211;9.560;-2.078;0.004;0.002;-0.001;
20190908_092028;0.251;9.402;-2.337;0.005;0.001;-0.001;
20190908_092028;0.381;9.697;-2.112;0.011;0.002;0.001;
20190908_092028;0.144;10.080;-1.923;-0.008;0.003;-0.001;
20190908_092028;0.170;9.610;-1.891;0.000;0.003;-0.002;
20190908_092028;0.057;10.144;-2.124;0.002;0.004;-0.002;
20190908_092029;0.120;9.462;-1.853;-0.004;0.003;-0.003;
20190908_092029;0.091;9.404;-2.272;-0.002;0.003;-0.003;
20190908_092029;0.182;9.467;-2.143;0.000;0.004;-0.001;
20190908_092029;0.225;9.141;-2.167;-0.001;0.003;-0.003;
20190908_092029;0.220;10.173;-2.150;0.008;0.002;-0.001;
20190908_092029;0.098;9.275;-1.966;-0.020;0.004;-0.002;
20190908_092029;0.160;9.759;-2.315;0.009;0.002;-0.003;
20190908_092029;0.189;9.428;-2.207;-0.008;0.004;-0.001;
20190908_092029;0.156;9.340;-2.203;0.012;-0.000;-0.003;
20190908_092030;0.297;9.938;-2.148;-0.004;0.003;0.000;
20190908_092030;0.117;9.282;-1.832;-0.009;0.001;-0.003;
20190908_092030;0.160;9.627;-2.124;0.005;0.001;-0.003;
20190908_092030;0.292;9.524;-2.174;-0.004;0.002;-0.003;
20190908_092030;0.160;9.591;-2.052;0.011;0.002;-0.001;
20190908_092030;0.196;9.615;-2.361;0.000;0.001;0.000;
20190908_092030;0.230;9.586;-2.162;0.005;-0.000;0.003;
20190908_092030;0.211;9.752;-1.956;-0.008;0.006;0.005;
20190908_092030;0.067;9.515;-2.076;0.002;0.002;0.001;
20190908_092030;-0.096;9.467;-2.057;-0.001;0.004;0.003;
20190908_092031;-0.019;9.311;-2.227;0.008;0.003;0.000;
20190908_092031;0.287;9.656;-2.349;0.014;-0.002;-0.002;
20190908_092031;0.395;9.608;-2.195;0.001;0.001;-0.001;
20190908_092031;0.338;9.895;-2.265;0.003;-0.000;-0.002;
20190908_092031;0.218;9.747;-2.121;-0.004;0.001;-0.004;
20190908_092031;0.323;9.646;-2.102;0.002;0.002;-0.003;
20190908_092031;0.136;9.596;-2.093;-0.002;0.001;-0.002;
20190908_092031;0.127;9.301;-2.234;0.000;0.002;-0.003;
20190908_092031;0.053;9.613;-2.243;0.002;0.004;-0.001;
20190908_092032;0.223;9.840;-2.377;0.005;0.002;0.001;
20190908_092032;0.055;9.622;-2.169;0.000;0.001;0.001;
20190908_092032;0.122;9.483;-2.018;0.001;0.002;0.003;
20190908_092032;0.060;9.340;-2.100;0.000;0.004;0.001;
20190908_092032;0.247;9.416;-2.375;-0.001;0.002;0.000;
20190908_092032;0.424;9.747;-2.131;-0.003;0.003;0.004;
20190908_092032;0.261;9.629;-2.294;-0.005;0.001;0.000;
20190908_092032;0.187;9.301;-2.251;0.000;0.001;-0.003;
20190908_092032;0.318;9.294;-2.284;-0.002;0.002;0.000;
20190908_092032;0.153;9.462;-2.210;0.003;0.002;0.000;
20190908_092033;0.120;9.582;-2.272;0.001;0.001;-0.003;
20190908_092033;0.309;9.536;-2.203;0.003;0.001;-0.003;
20190908_092033;0.184;9.910;-2.464;0.008;-0.002;-0.001;
20190908_092033;0.170;9.383;-2.184;-0.005;0.001;-0.005;
20190908_092033;0.213;9.527;-2.389;0.005;0.002;-0.001;
20190908_092033;0.139;9.459;-2.267;-0.007;0.004;-0.001;
20190908_092033;0.266;9.318;-2.258;0.000;0.002;-0.003;
20190908_092033;0.259;9.294;-2.193;-0.001;0.002;0.001;
20190908_092033;0.160;9.218;-2.279;0.000;0.002;0.000;
20190908_092034;0.201;9.424;-2.418;0.003;0.002;-0.001;
20190908_092034;0.338;9.486;-2.349;-0.001;0.003;0.001;
20190908_092034;0.086;9.493;-2.344;0.007;0.001;-0.002;
20190908_092034;0.184;9.670;-2.428;-0.007;0.003;-0.003;
20190908_092034;0.364;9.591;-2.502;-0.001;0.001;-0.001;
20190908_092034;0.151;9.632;-2.373;-0.006;0.001;-0.002;
20190908_092034;0.182;9.182;-2.377;0.009;-0.000;-0.004;
20190908_092034;0.318;9.519;-2.270;0.000;0.003;-0.003;
20190908_092034;0.318;9.328;-2.267;0.003;-0.002;-0.002;
20190908_092034;0.115;9.347;-2.023;-0.005;-0.000;-0.004;
20190908_092035;0.045;9.529;-2.500;0.005;0.001;-0.002;
20190908_092035;0.081;9.541;-2.119;-0.005;0.002;-0.004;
20190908_092035;0.244;9.890;-2.516;0.002;0.001;-0.004;
20190908_092035;0.366;9.905;-2.588;0.008;-0.002;-0.002;
20190908_092035;0.235;10.032;-2.452;0.002;-0.000;0.000;
20190908_092035;0.120;9.847;-2.490;-0.003;-0.000;-0.001;
20190908_092035;0.072;9.527;-2.399;0.003;-0.000;0.001;
20190908_092035;-0.026;9.337;-2.071;-0.003;0.002;0.000;
20190908_092035;0.065;9.167;-2.313;-0.003;-0.000;-0.001;
20190908_092036;0.057;9.294;-2.109;-0.004;0.002;0.004;
20190908_092036;0.146;9.352;-2.205;-0.002;0.001;0.000;
20190908_092036;0.256;9.278;-2.279;-0.001;0.001;0.000;
20190908_092036;0.347;9.701;-2.485;0.003;0.002;0.000;
20190908_092036;0.354;9.543;-2.643;0.007;-0.004;-0.004;
20190908_092036;0.414;9.773;-2.437;-0.007;0.003;-0.001;
20190908_092036;0.206;9.517;-2.368;0.004;-0.000;-0.002;
20190908_092036;0.098;9.421;-2.406;0.009;-0.003;-0.006;
20190908_092036;0.297;9.596;-2.588;0.003;0.001;-0.002;
20190908_092036;0.213;9.433;-2.239;-0.002;0.001;-0.002;
20190908_092037;0.103;9.536;-2.272;-0.002;0.002;-0.001;
20190908_092037;0.081;9.251;-2.437;-0.006;0.001;0.000;
20190908_092037;0.120;9.239;-2.274;-0.003;0.002;-0.001;
20190908_092037;0.034;9.246;-2.437;0.003;0.001;0.001;
20190908_092037;0.103;9.325;-2.234;-0.004;0.002;0.003;
20190908_092037;0.177;9.409;-2.435;0.019;-0.003;0.001;
20190908_092037;0.144;9.622;-2.229;-0.009;0.002;0.003;
20190908_092037;0.172;9.838;-2.650;0.003;0.001;0.001;
20190908_092037;0.170;9.553;-2.354;0.003;0.001;0.003;
20190908_092038;0.275;9.649;-2.418;0.003;-0.000;0.000;
20190908_092038;0.335;9.677;-2.461;-0.006;-0.000;0.000;
20190908_092038;0.220;9.203;-2.404;-0.004;-0.000;-0.002;
20190908_092038;0.230;9.412;-2.464;0.000;-0.000;-0.001;
20190908_092038;0.225;9.385;-2.476;-0.004;0.002;0.000;
20190908_092038;0.144;9.237;-2.107;-0.007;0.001;0.000;
20190908_092038;0.053;9.153;-2.308;0.009;-0.000;-0.002;
20190908_092038;0.141;9.127;-2.495;0.010;-0.002;-0.001;
20190908_092038;0.259;9.656;-2.349;0.004;-0.000;0.003;
20190908_092038;0.160;9.816;-2.564;0.007;-0.000;0.003;
20190908_092039;0.280;9.814;-2.626;-0.009;0.001;0.001;
20190908_092039;0.172;9.385;-2.152;0.002;0.001;0.001;
20190908_092039;0.110;9.098;-2.334;0.000;0.001;-0.002;
20190908_092039;0.158;9.170;-2.411;0.005;-0.000;-0.001;
20190908_092039;0.421;9.625;-2.246;0.001;-0.000;0.000;
20190908_092039;0.448;9.697;-2.634;0.010;-0.003;-0.001;
20190908_092039;0.237;9.761;-2.540;-0.003;-0.000;-0.003;
20190908_092039;0.196;9.673;-2.373;-0.003;-0.000;0.000;
20190908_092039;0.122;9.527;-2.626;0.002;-0.000;-0.002;
20190908_092040;0.110;9.546;-2.442;0.004;-0.003;-0.002;
20190908_092040;0.290;9.555;-2.425;-0.006;-0.002;-0.001;
20190908_092040;0.275;9.550;-2.186;-0.012;0.001;-0.002;
20190908_092040;0.271;9.419;-2.373;-0.002;-0.000;-0.002;
20190908_092040;0.199;9.349;-2.428;-0.001;0.001;0.000;
20190908_092040;0.192;9.713;-2.416;-0.001;-0.000;-0.002;
20190908_092040;0.151;9.160;-2.157;-0.011;0.001;-0.004;
20190908_092040;0.232;9.503;-2.550;0.019;-0.003;-0.003;
20190908_092040;0.290;9.883;-2.528;-0.001;-0.000;-0.004;
20190908_092041;0.196;9.366;-2.282;-0.006;0.001;-0.002;
20190908_092041;0.194;9.615;-2.516;0.005;-0.003;-0.002;
20190908_092041;0.146;9.182;-2.274;-0.005;-0.000;-0.002;
20190908_092041;0.053;9.359;-2.289;0.002;0.002;0.001;
20190908_092041;0.192;9.330;-2.433;0.000;-0.000;0.000;
20190908_092041;0.144;9.670;-2.332;0.009;-0.000;0.003;
20190908_092041;0.194;9.852;-2.473;-0.003;-0.000;0.003;
20190908_092041;0.072;9.567;-2.370;0.004;-0.002;0.004;
20190908_092041;0.074;9.519;-2.385;-0.004;0.001;0.003;
20190908_092041;0.062;9.115;-2.090;-0.005;-0.000;0.003;
20190908_092042;0.014;9.515;-2.363;0.007;-0.002;0.005;
20190908_092042;0.318;9.493;-2.138;-0.006;-0.000;0.001;
20190908_092042;0.285;9.440;-2.222;0.007;-0.002;0.004;
20190908_092042;0.259;9.467;-2.385;-0.003;-0.002;0.001;
20190908_092042;0.254;9.457;-1.906;0.007;-0.003;-0.001;
20190908_092042;0.213;9.529;-2.260;0.003;-0.003;0.004;
20190908_092042;0.268;9.725;-1.994;-0.006;-0.000;0.000;
20190908_092042;0.189;9.495;-2.327;-0.002;0.001;0.000;
20190908_092042;0.383;9.862;-2.473;0.004;-0.000;-0.002;
20190908_092043;0.285;9.378;-2.191;-0.004;-0.002;-0.004;
20190908_092043;0.383;9.323;-2.174;-0.001;-0.000;-0.002;
20190908_092043;0.230;9.266;-2.109;-0.002;-0.000;-0.001;
20190908_092043;0.263;9.699;-2.375;-0.001;-0.002;-0.002;
20190908_092043;0.271;9.613;-2.260;-0.001;-0.002;-0.002;
20190908_092043;0.124;9.694;-2.193;-0.002;-0.000;-0.001;
20190908_092043;0.132;10.068;-2.241;-0.008;0.001;-0.001;
20190908_092043;0.146;9.371;-2.193;0.010;-0.003;-0.001;
20190908_092043;0.060;9.560;-2.217;0.014;-0.003;0.001;
20190908_092044;0.053;9.237;-2.394;-0.012;0.001;0.000;
20190908_092044;0.029;9.256;-2.128;0.001;-0.002;0.000;
20190908_092044;0.148;9.711;-2.334;0.009;-0.002;0.003;
20190908_092044;0.084;9.668;-2.629;0.009;-0.003;0.000;
20190908_092044;0.196;9.383;-2.428;0.008;-0.002;0.000;
20190908_092044;0.326;9.713;-2.471;0.000;-0.002;0.001;
20190908_092044;0.342;9.711;-2.531;-0.001;-0.000;-0.002;
20190908_092044;0.134;9.426;-2.373;0.000;-0.003;-0.001;
20190908_092044;0.168;9.618;-2.380;-0.001;0.001;0.004;
20190908_092045;-0.077;9.347;-2.241;-0.011;-0.003;0.001;
20190908_092045;0.067;9.287;-2.119;0.004;-0.002;0.001;
20190908_092045;0.141;9.720;-2.648;0.002;0.002;0.006;
20190908_092045;0.196;9.443;-2.368;0.011;-0.006;-0.001;
20190908_092045;0.426;9.867;-2.749;0.015;-0.002;0.003;
20190908_092045;0.256;9.431;-2.452;-0.004;-0.003;0.003;
20190908_092045;0.081;9.577;-2.313;0.001;-0.002;-0.001;
20190908_092045;0.091;9.340;-2.411;-0.003;-0.002;-0.004;
20190908_092045;0.354;9.309;-2.418;0.007;-0.003;-0.001;
20190908_092045;0.366;9.500;-2.200;-0.013;-0.000;0.000;
20190908_092046;0.158;8.825;-2.061;-0.003;-0.004;-0.001;
20190908_092046;0.081;9.692;-2.492;0.003;0.001;0.001;
20190908_092046;0.177;9.596;-2.459;0.004;-0.004;-0.004;
20190908_092046;0.304;9.608;-2.425;0.003;-0.003;-0.001;
20190908_092046;0.144;10.010;-2.531;0.004;-0.002;0.001;
20190908_092046;0.141;9.402;-2.468;-0.001;-0.003;-0.003;
20190908_092046;0.299;9.505;-2.375;-0.001;-0.000;0.000;
20190908_092046;0.170;9.299;-1.958;-0.007;0.001;0.000;
20190908_092046;0.172;9.297;-2.143;0.008;-0.002;-0.002;
20190908_092047;0.213;9.562;-2.708;0.010;-0.002;0.001;
20190908_092047;0.204;9.440;-2.172;0.002;-0.002;0.000;
20190908_092047;0.239;9.804;-2.476;0.007;-0.002;0.001;
20190908_092047;0.297;9.340;-2.401;-0.003;-0.002;0.003;
20190908_092047;0.316;9.632;-2.375;0.012;-0.003;0.001;
20190908_092047;0.297;9.797;-2.543;0.002;-0.003;-0.001;
20190908_092047;0.306;9.290;-2.392;-0.001;-0.003;-0.003;
20190908_092047;0.316;9.577;-2.315;-0.006;0.001;0.000;
20190908_092047;0.271;9.354;-2.373;-0.004;-0.003;-0.004;
20190908_092047;0.278;9.701;-2.310;-0.004;-0.000;-0.003;
20190908_092048;0.204;9.522;-2.456;-0.001;-0.002;-0.002;
20190908_092048;0.208;9.179;-2.411;0.007;-0.004;-0.002;
20190908_092048;0.124;9.349;-2.641;0.001;-0.002;-0.001;
20190908_092048;0.098;9.179;-2.207;-0.002;-0.000;-0.001;
20190908_092048;0.117;9.720;-2.526;-0.002;0.001;0.001;
20190908_092048;0.254;9.505;-2.306;-0.006;-0.002;-0.001;
20190908_092048;0.232;9.641;-2.239;0.003;-0.002;0.001;
20190908_092048;0.105;9.656;-2.480;-0.004;0.001;-0.001;
20190908_092048;0.074;9.495;-2.512;0.013;-0.004;-0.003;
20190908_092049;0.110;9.505;-2.358;0.000;-0.000;-0.002;
20190908_092049;0.208;9.462;-2.461;-0.001;-0.002;-0.003;
20190908_092049;0.338;9.495;-2.210;-0.004;-0.002;-0.005;
20190908_092049;0.350;9.309;-2.425;0.001;-0.003;-0.003;
20190908_092049;0.242;9.598;-2.504;0.002;-0.000;-0.001;
20190908_092049;0.120;9.498;-2.217;-0.008;-0.003;-0.001;
20190908_092049;0.034;9.371;-2.207;0.002;-0.002;0.001;
20190908_092049;-0.057;9.457;-2.691;0.007;-0.002;0.005;
20190908_092049;0.045;9.371;-2.370;-0.003;-0.000;0.003;
20190908_092050;0.237;9.582;-2.502;0.005;-0.002;0.004;
20190908_092050;0.321;9.711;-2.449;-0.006;-0.002;0.005;
20190908_092050;0.160;9.438;-2.279;-0.005;-0.002;0.000;
20190908_092050;0.151;9.431;-2.361;0.000;-0.003;-0.001;
20190908_092050;0.208;9.629;-2.464;0.003;-0.003;-0.002;
20190908_092050;0.429;9.232;-2.320;0.001;-0.003;-0.006;
20190908_092050;0.352;9.359;-2.251;0.007;-0.002;-0.004;
20190908_092050;0.239;9.404;-2.342;0.002;-0.002;-0.005;
20190908_092050;0.215;9.414;-2.332;0.007;-0.003;-0.006;
20190908_092050;0.215;9.699;-2.421;0.001;-0.000;-0.002;
20190908_092051;0.242;9.632;-2.535;0.009;-0.000;-0.001;
20190908_092051;0.136;9.778;-2.241;-0.005;-0.000;0.000;
20190908_092051;0.017;9.275;-2.308;0.000;0.001;0.001;
20190908_092051;0.005;9.582;-2.193;0.002;0.004;0.003;
20190908_092051;0.002;9.345;-2.294;0.002;-0.000;-0.002;
20190908_092051;0.204;9.438;-2.421;0.004;0.001;0.001;
20190908_092051;0.328;9.558;-2.471;-0.002;0.001;0.001;
20190908_092051;0.352;9.330;-2.174;-0.003;0.001;0.001;
20190908_092051;0.266;9.685;-2.421;0.005;-0.000;0.000;
20190908_092052;0.261;9.515;-2.444;-0.005;-0.000;0.000;
20190908_092052;0.180;9.567;-2.236;-0.001;0.002;0.000;
20190908_092052;0.165;9.606;-2.437;-0.006;0.001;0.000;
20190908_092052;0.223;9.337;-2.318;-0.001;0.001;-0.002;
20190908_092052;0.187;9.474;-2.296;0.001;0.001;0.001;
20190908_092052;0.213;9.448;-2.322;0.005;-0.002;-0.003;
20190908_092052;0.206;9.491;-2.272;-0.002;0.003;-0.001;
20190908_092052;0.251;9.651;-2.411;0.005;-0.002;-0.003;
20190908_092052;0.237;9.615;-2.394;0.007;0.001;-0.002;
20190908_092053;0.273;9.538;-2.318;0.001;-0.002;-0.001;
20190908_092053;0.215;9.505;-2.243;-0.001;0.001;0.000;
20190908_092053;0.069;9.395;-2.325;-0.006;0.002;0.000;
20190908_092053;-0.007;9.390;-2.327;-0.003;0.002;-0.002;
20190908_092053;0.175;9.459;-2.404;0.005;-0.000;-0.001;
20190908_092053;0.369;9.675;-2.452;-0.001;-0.000;-0.002;
20190908_092053;0.443;9.553;-2.301;0.003;-0.002;-0.003;
20190908_092053;0.223;9.488;-2.442;0.005;-0.002;-0.002;
20190908_092053;0.187;9.625;-2.100;-0.006;0.001;-0.002;
20190908_092054;0.326;9.483;-2.306;0.005;-0.000;-0.001;
20190908_092054;0.352;9.574;-2.404;-0.004;0.002;0.000;
20190908_092054;0.254;9.744;-2.308;-0.003;0.003;-0.001;
20190908_092054;0.048;9.486;-2.136;0.008;-0.000;-0.001;
20190908_092054;-0.089;9.290;-2.423;0.007;0.002;-0.003;
20190908_092054;0.091;9.175;-2.279;0.003;0.001;-0.001;
20190908_092054;0.134;9.431;-2.270;0.004;0.001;-0.002;
20190908_092054;0.414;9.594;-2.440;0.001;0.001;0.000;
20190908_092054;0.369;9.785;-2.380;-0.005;0.002;0.001;
20190908_092054;0.206;9.790;-2.160;-0.002;0.001;0.003;
20190908_092055;0.060;9.431;-2.447;0.004;0.003;0.000;
20190908_092055;-0.034;9.313;-2.102;0.001;0.006;0.003;
20190908_092055;0.239;9.718;-2.349;-0.001;0.003;0.004;
20190908_092055;0.378;9.603;-2.344;0.007;-0.003;0.000;
20190908_092055;0.263;9.773;-2.174;-0.006;0.003;0.000;
20190908_092055;0.323;9.505;-2.267;-0.003;0.002;-0.002;
20190908_092055;0.338;9.579;-2.014;-0.005;0.004;-0.002;
20190908_092055;0.285;9.538;-2.274;0.004;-0.000;-0.005;
20190908_092055;0.244;9.184;-2.320;0.007;0.001;-0.007;
20190908_092056;0.091;9.618;-2.339;0.002;0.002;-0.004;
20190908_092056;0.302;9.328;-2.370;0.001;0.001;-0.004;
20190908_092056;0.192;9.567;-2.054;-0.002;0.005;0.000;
20190908_092056;0.196;9.570;-2.344;-0.004;0.004;0.001;
20190908_092056;0.060;9.759;-2.073;-0.001;0.006;0.003;
20190908_092056;0.048;9.515;-2.121;0.005;0.005;0.001;
20190908_092056;0.000;9.459;-2.241;0.002;0.005;0.003;
20190908_092056;0.050;9.582;-2.140;0.004;0.004;0.003;
20190908_092056;0.328;9.510;-2.169;0.007;0.003;-0.001;
20190908_092056;0.409;9.876;-2.294;-0.001;0.003;0.003;
20190908_092057;0.342;9.608;-2.088;-0.008;0.004;-0.001;
20190908_092057;0.268;9.625;-2.124;0.008;0.002;-0.003;
20190908_092057;0.333;10.003;-2.387;0.001;0.005;0.000;
20190908_092057;0.129;9.412;-2.083;0.007;0.002;-0.004;
20190908_092057;0.127;9.345;-2.380;0.010;0.003;-0.003;
20190908_092057;0.223;9.318;-2.045;-0.008;0.006;-0.001;
20190908_092057;0.189;9.170;-2.167;0.004;0.002;-0.003;
20190908_092057;0.177;9.330;-2.057;-0.001;0.004;-0.003;
20190908_092057;0.113;9.000;-2.272;0.003;0.003;-0.002;
20190908_092058;0.208;9.438;-2.195;0.003;0.006;-0.004;
20190908_092058;0.347;9.594;-2.401;0.003;0.002;-0.004;
20190908_092058;0.306;9.723;-2.294;0.001;0.003;-0.002;
20190908_092058;0.127;9.874;-2.231;-0.007;0.006;-0.002;
20190908_092058;0.084;9.318;-2.332;-0.001;0.004;-0.003;
20190908_092058;0.151;9.677;-2.495;-0.003;0.005;0.000;
20190908_092058;0.168;9.330;-2.203;0.000;0.003;-0.004;
20190908_092058;0.194;9.357;-2.291;0.004;0.003;0.001;
20190908_092058;0.175;9.610;-2.322;-0.001;0.005;0.003;
20190908_092058;0.060;9.402;-2.229;0.005;0.002;-0.001;
20190908_092059;0.110;9.467;-2.351;0.002;0.004;0.000;
20190908_092059;0.113;9.203;-2.334;0.003;0.003;0.000;
20190908_092059;0.180;9.457;-2.313;0.010;0.002;-0.002;
20190908_092059;0.304;9.744;-2.241;0.000;0.004;-0.002;
20190908_092059;0.213;9.878;-2.497;-0.002;0.003;-0.003;
20190908_092059;0.266;9.718;-2.148;0.008;0.002;-0.004;
20190908_092059;0.263;9.522;-2.140;-0.009;0.004;-0.004;
20190908_092059;0.235;9.440;-2.421;0.009;0.001;-0.003;
20190908_092059;0.251;9.304;-2.054;-0.006;0.004;-0.003;
20190908_092100;0.201;9.321;-2.126;-0.003;0.004;-0.001;
20190908_092100;0.086;9.378;-2.002;-0.002;0.005;0.003;
20190908_092100;0.077;9.419;-2.172;0.001;0.002;0.000;
20190908_092100;0.206;9.749;-2.394;-0.002;0.003;0.001;
20190908_092100;0.232;9.479;-2.049;-0.006;0.004;0.003;
20190908_092100;0.096;9.500;-2.231;0.008;0.003;0.000;
20190908_092100;0.208;9.725;-2.421;-0.003;0.004;-0.002;
20190908_092100;0.242;9.570;-2.167;0.004;0.001;-0.003;
20190908_092100;0.266;9.694;-2.181;0.001;0.001;-0.004;
20190908_092100;0.204;9.292;-2.387;0.002;0.001;-0.003;
20190908_092101;0.180;9.486;-2.315;-0.001;0.002;-0.003;
20190908_092101;0.031;9.459;-2.322;0.000;0.001;-0.004;
20190908_092101;0.026;9.752;-2.638;0.014;-0.000;-0.001;
20190908_092101;0.060;9.752;-2.342;-0.003;0.002;0.000;
20190908_092101;0.096;9.555;-2.354;-0.007;0.002;0.001;
20190908_092101;0.105;9.318;-2.191;-0.009;0.003;0.003;
20190908_092101;0.151;9.402;-2.179;0.005;-0.002;0.000;
20190908_092101;0.194;9.697;-2.267;0.005;0.001;0.001;
20190908_092101;0.189;9.723;-2.241;0.003;-0.003;0.001;
20190908_092102;0.136;9.450;-2.133;-0.004;-0.002;-0.001;
20190908_092102;0.067;9.543;-2.380;0.005;-0.004;-0.001;
20190908_092102;0.098;9.512;-2.152;-0.005;-0.003;-0.001;
20190908_092102;0.072;9.380;-2.148;0.000;-0.004;-0.001;
20190908_092102;0.117;9.512;-2.332;0.000;-0.007;0.000;
20190908_092102;0.187;9.589;-2.160;-0.002;-0.006;-0.001;
20190908_092102;0.239;9.661;-2.210;-0.001;-0.006;-0.002;
20190908_092102;0.225;9.574;-2.322;0.007;-0.007;0.000;
20190908_092102;0.098;9.553;-2.097;0.003;-0.008;0.001;
20190908_092103;0.038;9.325;-2.272;0.005;-0.006;0.004;
20190908_092103;0.089;9.598;-1.937;-0.006;-0.004;0.004;
20190908_092103;0.113;9.517;-2.306;0.005;-0.008;0.003;
20190908_092103;-0.022;9.550;-2.169;-0.006;-0.007;0.003;
20190908_092103;0.043;9.548;-2.148;-0.004;-0.008;0.003;
20190908_092103;0.278;9.572;-2.167;0.003;-0.011;0.003;
20190908_092103;0.211;9.541;-2.136;0.000;-0.013;0.001;
20190908_092103;0.335;9.910;-2.286;0.000;-0.014;0.001;
20190908_092103;0.280;9.570;-2.109;-0.004;-0.014;0.001;
20190908_092103;0.177;9.519;-2.215;0.004;-0.014;0.003;
20190908_092104;0.213;9.445;-2.085;-0.005;-0.014;0.001;
20190908_092104;0.170;9.644;-1.961;0.000;-0.016;0.001;
20190908_092104;0.180;9.728;-2.301;0.002;-0.019;0.001;
20190908_092104;0.168;9.749;-2.236;0.004;-0.018;0.001;
20190908_092104;0.309;10.238;-2.181;0.002;-0.018;0.005;
20190908_092104;0.292;9.740;-2.018;-0.001;-0.021;0.003;
20190908_092104;0.223;9.701;-2.361;0.007;-0.016;0.004;
20190908_092104;0.299;10.202;-2.191;0.000;-0.021;0.003;
20190908_092104;0.204;10.163;-2.162;0.008;-0.021;0.003;
20190908_092105;0.160;9.596;-2.258;-0.008;-0.019;0.004;
20190908_092105;0.115;9.572;-2.030;0.007;-0.023;0.000;
20190908_092105;0.156;9.469;-2.298;0.003;-0.023;0.003;
20190908_092105;0.261;9.455;-2.260;0.004;-0.024;0.004;
20190908_092105;0.182;9.512;-2.191;0.002;-0.024;0.004;
20190908_092105;0.259;9.574;-2.128;0.001;-0.024;0.005;
20190908_092105;0.177;9.699;-2.248;0.002;-0.025;0.008;
20190908_092105;0.113;9.615;-2.160;-0.001;-0.024;0.007;
20190908_092105;0.127;9.598;-2.138;0.001;-0.027;0.006;
20190908_092106;0.165;9.555;-2.217;-0.003;-0.026;0.009;
20190908_092106;0.113;9.534;-2.093;-0.003;-0.027;0.007;
20190908_092106;0.227;9.407;-2.025;0.001;-0.028;0.006;
20190908_092106;0.249;9.790;-2.114;0.001;-0.029;0.009;
20190908_092106;0.172;9.665;-2.210;-0.005;-0.031;0.008;
20190908_092106;0.177;9.572;-2.114;0.002;-0.031;0.005;
20190908_092106;0.192;9.594;-2.263;0.005;-0.031;0.007;
20190908_092106;0.218;9.615;-2.191;0.000;-0.035;0.005;
20190908_092106;0.311;9.538;-2.097;-0.003;-0.035;0.005;
20190908_092106;0.220;9.531;-2.253;0.000;-0.036;0.008;
20190908_092107;0.134;9.493;-2.128;0.000;-0.036;0.009;
20190908_092107;0.168;9.443;-2.207;-0.006;-0.037;0.007;
20190908_092107;0.168;9.316;-2.081;-0.002;-0.037;0.010;
20190908_092107;0.239;9.507;-2.181;0.003;-0.039;0.007;
20190908_092107;0.306;9.582;-2.186;0.002;-0.042;0.008;
20190908_092107;0.352;9.692;-2.282;0.004;-0.043;0.007;
20190908_092107;0.271;9.723;-2.140;-0.003;-0.044;0.008;
20190908_092107;0.235;9.656;-2.157;-0.002;-0.046;0.007;
20190908_092107;0.239;9.649;-2.186;-0.001;-0.048;0.008;
20190908_092108;0.151;9.641;-2.174;-0.002;-0.049;0.008;
20190908_092108;0.220;9.481;-2.131;-0.002;-0.052;0.009;
20190908_092108;0.182;9.328;-1.966;-0.003;-0.051;0.011;
20190908_092108;0.184;9.426;-2.203;0.002;-0.053;0.010;
20190908_092108;0.254;9.416;-2.176;0.005;-0.054;0.011;
20190908_092108;0.283;9.560;-2.195;0.000;-0.055;0.011;
20190908_092108;0.268;9.550;-2.298;-0.006;-0.052;0.011;
20190908_092108;0.328;9.780;-2.145;0.000;-0.055;0.012;
20190908_092108;0.306;9.550;-2.224;0.002;-0.054;0.013;
20190908_092108;0.306;9.266;-2.397;0.007;-0.054;0.012;
20190908_092109;0.378;9.349;-2.083;-0.002;-0.056;0.010;
20190908_092109;0.448;9.397;-2.002;-0.001;-0.056;0.012;
20190908_092109;0.371;9.900;-2.274;-0.002;-0.057;0.013;
20190908_092109;0.261;9.632;-2.227;-0.004;-0.060;0.009;
20190908_092109;0.338;9.342;-2.322;0.004;-0.059;0.012;
20190908_092109;0.366;9.541;-2.294;-0.005;-0.057;0.013;
20190908_092109;0.326;9.388;-2.411;0.004;-0.063;0.009;
20190908_092109;0.469;9.483;-2.387;-0.004;-0.061;0.011;
20190908_092109;0.323;9.661;-2.483;0.003;-0.062;0.012;
20190908_092110;0.247;9.529;-2.485;-0.003;-0.062;0.011;
20190908_092110;0.266;9.450;-2.365;0.001;-0.064;0.011;
20190908_092110;0.235;9.364;-2.440;0.001;-0.064;0.014;
20190908_092110;0.259;9.548;-2.483;0.005;-0.065;0.014;
20190908_092110;0.299;9.534;-2.373;0.000;-0.068;0.012;
20190908_092110;0.433;9.586;-2.468;0.003;-0.068;0.012;
20190908_092110;0.438;9.663;-2.413;-0.005;-0.068;0.011;
20190908_092110;0.433;9.369;-2.363;-0.001;-0.069;0.008;
20190908_092110;0.484;9.426;-2.440;0.004;-0.070;0.010;
20190908_092110;0.335;9.292;-2.492;0.001;-0.071;0.010;
20190908_092111;0.328;9.438;-2.315;-0.001;-0.071;0.009;
20190908_092111;0.388;9.560;-2.416;0.002;-0.073;0.010;
20190908_092111;0.359;9.701;-2.344;-0.004;-0.074;0.010;
20190908_092111;0.323;9.752;-2.490;-0.003;-0.075;0.010;
20190908_092111;0.242;9.474;-2.342;-0.005;-0.074;0.011;
20190908_092111;0.218;9.522;-2.365;-0.001;-0.076;0.009;
20190908_092111;0.268;9.256;-2.318;0.001;-0.077;0.010;
20190908_092111;0.294;9.318;-2.322;0.003;-0.077;0.011;
20190908_092111;0.263;9.448;-2.342;-0.001;-0.078;0.012;
20190908_092112;0.237;9.323;-2.375;-0.001;-0.079;0.013;
20190908_092112;0.330;9.546;-2.428;0.000;-0.079;0.015;
20190908_092112;0.297;9.594;-2.476;0.003;-0.081;0.016;
20190908_092112;0.256;9.337;-2.509;-0.004;-0.083;0.014;
20190908_092112;0.285;9.550;-2.380;0.003;-0.083;0.016;
20190908_092112;0.283;9.297;-2.404;-0.003;-0.084;0.014;
20190908_092112;0.316;9.371;-2.399;0.001;-0.084;0.017;
20190908_092112;0.350;9.318;-2.466;0.003;-0.086;0.016;
20190908_092112;0.330;9.244;-2.310;-0.004;-0.085;0.016;
20190908_092113;0.311;9.747;-2.471;0.003;-0.086;0.019;
20190908_092113;0.393;9.778;-2.571;0.001;-0.088;0.016;
20190908_092113;0.304;9.615;-2.380;-0.003;-0.088;0.017;
20190908_092113;0.407;9.515;-2.447;-0.002;-0.088;0.016;
20190908_092113;0.378;9.402;-2.296;-0.007;-0.088;0.016;
20190908_092113;0.508;9.352;-2.435;0.003;-0.090;0.016;
20190908_092113;0.457;9.218;-2.377;-0.003;-0.088;0.017;
20190908_092113;0.405;9.400;-2.423;0.002;-0.088;0.014;
20190908_092113;0.330;9.426;-2.423;0.000;-0.087;0.015;
20190908_092113;0.340;9.680;-2.456;0.002;-0.088;0.017;
20190908_092114;0.412;9.495;-2.562;-0.003;-0.088;0.016;
20190908_092114;0.318;9.354;-2.325;-0.005;-0.086;0.017;
20190908_092114;0.254;9.359;-2.423;0.001;-0.087;0.019;
20190908_092114;0.311;9.397;-2.380;-0.003;-0.087;0.019;
20190908_092114;0.364;9.462;-2.454;-0.002;-0.089;0.017;
20190908_092114;0.419;9.527;-2.444;-0.004;-0.087;0.021;
20190908_092114;0.405;9.601;-2.588;0.001;-0.088;0.017;
20190908_092114;0.369;9.469;-2.387;-0.001;-0.087;0.016;
20190908_092114;0.541;9.371;-2.440;-0.001;-0.086;0.017;
20190908_092114;0.551;9.534;-2.500;-0.003;-0.087;0.016;
20190908_092115;0.570;9.524;-2.512;-0.001;-0.087;0.015;
20190908_092115;0.529;9.550;-2.435;0.001;-0.087;0.014;
20190908_092115;0.441;9.529;-2.454;-0.002;-0.087;0.016;
20190908_092115;0.376;9.294;-2.385;0.000;-0.086;0.015;
20190908_092115;0.445;9.309;-2.318;0.002;-0.085;0.016;
20190908_092115;0.381;9.364;-2.425;0.001;-0.085;0.013;
20190908_092115;0.491;9.414;-2.399;0.002;-0.086;0.014;
20190908_092115;0.417;9.610;-2.512;0.001;-0.085;0.016;
20190908_092115;0.328;9.589;-2.423;0.000;-0.085;0.017;
20190908_092116;0.400;9.577;-2.478;0.001;-0.085;0.016;
20190908_092116;0.350;9.426;-2.404;0.001;-0.084;0.016;
20190908_092116;0.426;9.653;-2.413;0.000;-0.083;0.019;
20190908_092116;0.352;9.534;-2.488;0.000;-0.085;0.016;
20190908_092116;0.433;9.670;-2.428;-0.005;-0.083;0.016;
20190908_092116;0.457;9.546;-2.413;-0.001;-0.084;0.016;
20190908_092116;0.488;9.428;-2.473;0.001;-0.084;0.013;
20190908_092116;0.532;9.242;-2.416;0.000;-0.083;0.014;
20190908_092116;0.498;9.534;-2.394;0.000;-0.079;0.016;
20190908_092116;0.452;9.658;-2.478;0.003;-0.079;0.015;
20190908_092117;0.529;9.543;-2.444;-0.002;-0.076;0.015;
20190908_092117;0.484;9.369;-2.495;0.004;-0.076;0.016;
20190908_092117;0.452;9.421;-2.459;0.001;-0.075;0.016;
20190908_092117;0.412;9.321;-2.263;0.000;-0.073;0.016;
20190908_092117;0.476;9.529;-2.471;0.008;-0.072;0.016;
20190908_092117;0.441;9.761;-2.540;0.002;-0.071;0.015;
20190908_092117;0.412;9.419;-2.394;-0.005;-0.069;0.014;
20190908_092117;0.429;9.313;-2.421;0.007;-0.070;0.015;
20190908_092117;0.577;9.256;-2.339;0.002;-0.070;0.013;
20190908_092118;0.455;9.371;-2.279;-0.003;-0.064;0.013;
20190908_092118;0.536;9.620;-2.557;0.001;-0.068;0.012;
20190908_092118;0.517;9.632;-2.442;0.002;-0.065;0.011;
20190908_092118;0.529;9.618;-2.492;0.001;-0.063;0.012;
20190908_092118;0.515;9.337;-2.358;-0.004;-0.062;0.010;
20190908_092118;0.452;9.409;-2.406;-0.001;-0.060;0.011;
20190908_092118;0.426;9.378;-2.389;0.002;-0.061;0.011;
20190908_092118;0.407;9.661;-2.373;0.002;-0.057;0.013;
20190908_092118;0.378;9.495;-2.526;-0.003;-0.056;0.012;
20190908_092119;0.328;9.560;-2.267;-0.003;-0.053;0.011;
20190908_092119;0.443;9.610;-2.373;0.001;-0.054;0.010;
20190908_092119;0.407;9.591;-2.430;0.004;-0.054;0.010;
20190908_092119;0.493;9.445;-2.406;-0.001;-0.049;0.009;
20190908_092119;0.345;9.325;-2.337;-0.001;-0.048;0.008;
20190908_092119;0.407;9.517;-2.602;0.005;-0.049;0.007;
20190908_092119;0.354;9.565;-2.502;0.003;-0.051;0.007;
20190908_092119;0.450;9.823;-2.516;0.001;-0.047;0.010;
20190908_092119;0.342;9.728;-2.535;0.001;-0.048;0.008;
20190908_092120;0.261;9.627;-2.373;0.000;-0.046;0.009;
20190908_092120;0.271;9.347;-2.507;0.002;-0.046;0.008;
20190908_092120;0.275;9.143;-2.461;-0.001;-0.045;0.008;
20190908_092120;0.249;9.273;-2.354;0.002;-0.043;0.010;
20190908_092120;0.352;9.419;-2.387;0.004;-0.043;0.010;
20190908_092120;0.371;9.524;-2.375;0.007;-0.043;0.011;
20190908_092120;0.376;9.646;-2.337;0.001;-0.038;0.015;
20190908_092120;0.390;9.723;-2.500;0.007;-0.039;0.013;
20190908_092120;0.412;9.471;-2.382;-0.004;-0.036;0.015;
20190908_092121;0.326;9.491;-2.351;-0.007;-0.032;0.015;
20190908_092121;0.273;9.380;-2.440;-0.004;-0.032;0.011;
20190908_092121;0.275;9.359;-2.342;-0.001;-0.031;0.009;
20190908_092121;0.402;9.562;-2.480;0.001;-0.034;0.009;
20190908_092121;0.364;9.548;-2.473;0.000;-0.031;0.007;
20190908_092121;0.421;9.541;-2.440;0.004;-0.031;0.008;
20190908_092121;0.445;9.685;-2.387;0.003;-0.030;0.008;
20190908_092121;0.283;9.627;-2.358;0.007;-0.031;0.007;
20190908_092121;0.194;9.357;-2.614;0.010;-0.034;0.007;
20190908_092121;0.184;9.378;-2.251;-0.006;-0.027;0.009;
20190908_092122;0.189;9.438;-2.567;0.003;-0.030;0.008;
20190908_092122;0.153;9.658;-2.253;0.002;-0.028;0.009;
20190908_092122;0.218;9.586;-2.559;0.001;-0.026;0.009;
20190908_092122;0.218;9.335;-2.195;0.004;-0.024;0.011;
20190908_092122;0.385;9.610;-2.294;0.002;-0.024;0.008;
20190908_092122;0.338;9.321;-2.334;-0.002;-0.023;0.008;
20190908_092122;0.373;9.493;-2.298;0.000;-0.022;0.009;
20190908_092122;0.335;9.689;-2.430;-0.002;-0.023;0.005;
20190908_092122;0.421;9.531;-2.442;0.004;-0.024;0.005;
20190908_092123;0.321;9.586;-2.449;0.004;-0.019;0.003;
20190908_092123;0.247;9.582;-2.454;0.001;-0.018;0.001;
20190908_092123;0.390;9.529;-2.471;0.012;-0.021;0.001;
20190908_092123;0.204;9.481;-2.370;0.003;-0.020;0.001;
20190908_092123;0.251;9.416;-2.531;-0.001;-0.014;0.003;
20190908_092123;0.249;9.522;-2.377;0.005;-0.014;0.001;
20190908_092123;0.225;9.352;-2.413;-0.004;-0.013;0.004;
20190908_092123;0.110;9.251;-2.423;-0.006;-0.011;0.005;
20190908_092123;0.132;9.376;-2.581;0.009;-0.012;0.004;
20190908_092123;0.326;9.170;-2.291;0.000;-0.010;0.005;
20190908_092124;0.342;9.618;-2.186;0.012;-0.011;0.004;
20190908_092124;0.345;9.297;-2.531;0.008;-0.014;0.004;
20190908_092124;0.314;9.316;-2.241;-0.007;-0.007;0.006;
20190908_092124;0.266;9.294;-2.286;0.004;-0.011;0.003;
20190908_092124;0.412;9.400;-2.212;0.003;-0.010;0.005;
20190908_092124;0.373;9.924;-2.392;-0.005;-0.010;0.005;
20190908_092124;0.259;9.503;-2.382;-0.001;-0.010;0.003;
20190908_092124;0.081;9.610;-2.425;0.007;-0.010;0.004;
20190908_092124;0.148;9.565;-2.581;-0.002;-0.008;0.004;
20190908_092125;0.204;9.503;-2.480;0.001;-0.011;0.000;
20190908_092125;0.230;9.644;-2.394;0.005;-0.010;0.003;
20190908_092125;0.105;9.476;-2.634;0.012;-0.014;0.003;
20190908_092125;0.026;9.318;-2.409;-0.007;-0.010;0.003;
20190908_092125;0.113;9.215;-2.406;0.003;-0.012;0.001;
20190908_092125;0.117;9.565;-2.497;0.005;-0.011;0.007;
20190908_092125;0.069;9.402;-2.337;-0.002;-0.011;0.006;
20190908_092125;0.043;9.196;-2.301;0.011;-0.010;0.007;
20190908_092125;0.165;9.677;-2.531;-0.001;-0.009;0.008;
20190908_092125;0.285;9.534;-2.576;0.005;-0.012;0.004;
20190908_092126;0.333;9.505;-2.346;0.002;-0.009;0.004;
20190908_092126;0.373;9.771;-2.531;0.001;-0.010;0.004;
20190908_092126;0.338;9.347;-2.330;-0.004;-0.012;0.000;
20190908_092126;0.369;9.397;-2.210;0.005;-0.011;0.001;
20190908_092126;0.419;9.689;-2.306;0.002;-0.011;0.001;
20190908_092126;0.532;9.455;-1.891;-0.003;-0.010;0.001;
20190908_092126;0.165;9.469;-2.461;0.005;-0.012;0.005;
20190908_092126;0.084;9.412;-2.107;-0.006;-0.009;0.006;
20190908_092126;0.002;9.586;-2.229;0.008;-0.011;0.006;
20190908_092127;0.017;9.304;-2.205;-0.001;-0.011;0.008;
20190908_092127;0.057;9.469;-2.294;-0.003;-0.010;0.007;
20190908_092127;0.022;9.371;-1.966;-0.007;-0.012;0.005;
20190908_092127;0.311;9.445;-2.085;0.005;-0.013;0.008;
20190908_092127;0.364;9.888;-2.418;0.008;-0.018;0.005;
20190908_092127;0.450;9.586;-2.030;-0.005;-0.016;0.004;
20190908_092127;0.405;9.728;-2.365;0.005;-0.018;0.004;
20190908_092127;0.292;9.902;-2.346;0.000;-0.016;0.006;
20190908_092127;0.378;9.591;-2.215;0.005;-0.021;0.001;
20190908_092127;0.335;9.893;-2.140;0.000;-0.020;0.007;
20190908_092128;0.266;9.371;-2.006;0.005;-0.022;0.004;
20190908_092128;0.263;9.282;-2.052;-0.012;-0.019;0.005;
20190908_092128;0.316;9.270;-2.107;-0.001;-0.019;0.008;
20190908_092128;0.249;9.608;-2.327;0.013;-0.023;0.007;
20190908_092128;0.328;9.543;-2.097;-0.009;-0.019;0.008;
20190908_092128;0.271;9.625;-2.148;0.004;-0.020;0.011;
20190908_092128;0.287;9.689;-2.174;-0.006;-0.021;0.009;
20190908_092128;0.369;9.323;-1.997;-0.001;-0.022;0.008;
20190908_092128;0.539;9.687;-2.059;0.001;-0.025;0.010;
20190908_092129;0.462;9.493;-2.033;0.003;-0.026;0.008;
20190908_092129;0.517;9.479;-2.093;0.004;-0.027;0.004;
20190908_092129;0.632;9.931;-2.219;0.010;-0.026;0.007;
20190908_092129;0.630;9.776;-2.215;0.009;-0.031;0.005;
20190908_092129;0.543;9.778;-2.394;0.010;-0.029;0.005;
20190908_092129;0.555;9.694;-2.306;0.003;-0.029;0.006;
20190908_092129;0.429;9.479;-2.114;0.004;-0.031;0.007;
20190908_092129;0.390;9.390;-2.181;-0.009;-0.029;0.006;
20190908_092129;0.311;9.345;-2.037;0.000;-0.032;0.007;
20190908_092129;0.177;9.285;-2.143;-0.005;-0.034;0.008;
20190908_092130;0.124;9.263;-2.162;0.003;-0.036;0.007;
20190908_092130;0.239;9.385;-2.308;0.004;-0.035;0.012;
20190908_092130;0.213;9.359;-2.112;-0.003;-0.035;0.010;
20190908_092130;0.433;9.352;-2.174;0.004;-0.037;0.010;
20190908_092130;0.467;9.740;-2.224;0.008;-0.039;0.013;
20190908_092130;0.515;9.783;-2.322;0.005;-0.041;0.010;
20190908_092130;0.534;9.543;-2.174;-0.003;-0.041;0.010;
20190908_092130;0.441;9.766;-2.284;-0.001;-0.039;0.012;
20190908_092130;0.419;9.574;-2.318;0.002;-0.044;0.008;
20190908_092131;0.505;9.515;-2.301;0.001;-0.044;0.008;
20190908_092131;0.496;9.594;-2.306;-0.004;-0.044;0.010;
20190908_092131;0.393;9.567;-2.138;0.000;-0.046;0.009;
20190908_092131;0.484;9.383;-2.289;-0.001;-0.049;0.007;
20190908_092131;0.283;9.584;-2.239;0.001;-0.048;0.011;
20190908_092131;0.225;9.412;-2.339;0.002;-0.052;0.010;
20190908_092131;0.237;9.371;-2.217;0.009;-0.053;0.011;
20190908_092131;0.330;9.816;-2.387;0.003;-0.055;0.013;
20190908_092131;0.369;9.471;-2.195;-0.001;-0.056;0.010;
20190908_092132;0.429;9.768;-2.294;-0.002;-0.055;0.012;
20190908_092132;0.522;9.582;-2.205;-0.002;-0.059;0.011;
20190908_092132;0.615;9.476;-2.296;0.003;-0.059;0.009;
20190908_092132;0.658;9.531;-2.282;0.000;-0.062;0.009;
20190908_092132;0.594;9.687;-2.310;0.000;-0.061;0.009;
20190908_092132;0.381;9.364;-2.222;-0.001;-0.065;0.008;
20190908_092132;0.441;9.390;-2.296;0.003;-0.063;0.009;
20190908_092132;0.452;9.074;-2.133;-0.002;-0.063;0.011;
20190908_092132;0.381;9.263;-2.263;0.007;-0.065;0.012;
20190908_092132;0.560;9.376;-2.418;0.002;-0.068;0.014;
20190908_092133;0.445;9.799;-2.411;0.003;-0.068;0.017;
20190908_092133;0.383;9.649;-2.361;0.003;-0.069;0.016;
20190908_092133;0.388;9.567;-2.492;0.000;-0.069;0.015;
20190908_092133;0.479;9.431;-2.435;0.003;-0.071;0.014;
20190908_092133;0.460;9.328;-2.260;-0.002;-0.073;0.011;
20190908_092133;0.486;9.249;-2.375;0.002;-0.073;0.010;
20190908_092133;0.615;9.483;-2.473;0.001;-0.075;0.010;
20190908_092133;0.685;9.570;-2.435;0.003;-0.075;0.008;
20190908_092133;0.582;9.570;-2.425;0.001;-0.077;0.009;
20190908_092134;0.496;9.431;-2.406;0.002;-0.078;0.010;
20190908_092134;0.376;9.268;-2.270;-0.002;-0.077;0.012;
20190908_092134;0.419;9.622;-2.514;0.002;-0.080;0.013;
20190908_092134;0.273;9.366;-2.330;-0.003;-0.080;0.014;
20190908_092134;0.369;9.495;-2.471;0.001;-0.083;0.014;
20190908_092134;0.251;9.357;-2.365;0.002;-0.083;0.016;
20190908_092134;0.273;9.390;-2.466;0.004;-0.083;0.020;
20190908_092134;0.220;9.280;-2.227;0.002;-0.083;0.020;
20190908_092134;0.378;9.644;-2.567;0.009;-0.086;0.020;
20190908_092134;0.498;9.795;-2.435;0.001;-0.087;0.019;
20190908_092135;0.532;9.677;-2.354;-0.002;-0.089;0.019;
20190908_092135;0.567;9.594;-2.531;0.004;-0.090;0.019;
20190908_092135;0.553;9.373;-2.236;-0.006;-0.090;0.019;
20190908_092135;0.503;9.270;-2.334;0.000;-0.093;0.015;
20190908_092135;0.517;9.402;-2.334;-0.003;-0.094;0.016;
20190908_092135;0.548;9.335;-2.375;0.002;-0.095;0.016;
20190908_092135;0.524;9.445;-2.418;0.000;-0.097;0.019;
20190908_092135;0.436;9.515;-2.495;0.003;-0.098;0.020;
20190908_092135;0.294;9.440;-2.365;-0.005;-0.097;0.022;
20190908_092135;0.342;9.661;-2.478;0.001;-0.100;0.022;
20190908_092136;0.330;9.529;-2.579;0.002;-0.102;0.023;
20190908_092136;0.412;9.668;-2.404;-0.001;-0.102;0.022;
20190908_092136;0.555;9.536;-2.595;0.000;-0.104;0.023;
20190908_092136;0.541;9.311;-2.406;-0.002;-0.104;0.023;
20190908_092136;0.594;9.318;-2.361;-0.005;-0.105;0.023;
20190908_092136;0.601;9.287;-2.535;0.004;-0.105;0.023;
20190908_092136;0.622;9.560;-2.557;0.005;-0.107;0.022;
20190908_092136;0.625;9.529;-2.516;0.003;-0.107;0.021;
20190908_092136;0.546;9.570;-2.600;0.007;-0.107;0.023;
20190908_092137;0.601;9.553;-2.425;-0.003;-0.110;0.021;
20190908_092137;0.460;9.474;-2.552;0.001;-0.108;0.024;
20190908_092137;0.345;9.390;-2.478;-0.003;-0.110;0.022;
20190908_092137;0.407;9.268;-2.349;-0.005;-0.109;0.021;
20190908_092137;0.383;9.385;-2.461;0.000;-0.110;0.022;
20190908_092137;0.539;9.395;-2.442;0.001;-0.111;0.022;
20190908_092137;0.613;9.404;-2.490;-0.001;-0.110;0.022;
20190908_092137;0.603;9.534;-2.521;0.000;-0.110;0.024;
20190908_092137;0.512;9.366;-2.576;0.002;-0.110;0.022;
20190908_092137;0.572;9.541;-2.464;-0.001;-0.109;0.024;
20190908_092138;0.613;9.507;-2.602;0.001;-0.110;0.024;
20190908_092138;0.615;9.682;-2.509;-0.005;-0.107;0.025;
20190908_092138;0.575;9.371;-2.476;-0.004;-0.109;0.022;
20190908_092138;0.524;9.318;-2.514;0.003;-0.108;0.022;
20190908_092138;0.651;9.452;-2.650;-0.004;-0.110;0.023;
20190908_092138;0.601;9.510;-2.346;-0.005;-0.109;0.025;
20190908_092138;0.452;9.349;-2.514;-0.003;-0.107;0.024;
20190908_092138;0.433;9.187;-2.377;-0.007;-0.106;0.023;
20190908_092138;0.448;9.242;-2.488;0.005;-0.105;0.023;
20190908_092139;0.778;9.606;-2.569;0.007;-0.105;0.024;
20190908_092139;0.773;9.943;-2.653;-0.003;-0.106;0.024;
20190908_092139;0.620;9.838;-2.523;-0.007;-0.104;0.023;
20190908_092139;0.450;9.495;-2.476;-0.007;-0.104;0.022;
20190908_092139;0.402;9.318;-2.461;-0.002;-0.103;0.017;
20190908_092139;0.548;9.443;-2.480;0.000;-0.103;0.020;
20190908_092139;0.577;9.515;-2.444;-0.001;-0.103;0.020;
20190908_092139;0.666;9.641;-2.533;-0.001;-0.102;0.021;
20190908_092139;0.553;9.433;-2.492;-0.001;-0.102;0.020;
20190908_092139;0.505;9.558;-2.437;-0.001;-0.101;0.021;
20190908_092140;0.369;9.431;-2.454;-0.004;-0.101;0.020;
20190908_092140;0.448;9.467;-2.488;-0.005;-0.100;0.021;
20190908_092140;0.421;9.436;-2.394;-0.005;-0.098;0.020;
20190908_092140;0.512;9.457;-2.512;-0.002;-0.100;0.019;
20190908_092140;0.438;9.483;-2.351;-0.005;-0.098;0.019;
20190908_092140;0.479;9.409;-2.377;-0.005;-0.098;0.020;
20190908_092140;0.429;9.292;-2.363;-0.003;-0.096;0.021;
20190908_092140;0.443;9.232;-2.421;-0.006;-0.096;0.019;
20190908_092140;0.498;9.531;-2.478;0.002;-0.097;0.020;
20190908_092141;0.536;9.591;-2.349;-0.003;-0.096;0.020;
20190908_092141;0.476;9.596;-2.459;0.001;-0.097;0.021;
20190908_092141;0.443;9.572;-2.416;-0.004;-0.096;0.020;
20190908_092141;0.476;9.345;-2.332;-0.006;-0.095;0.017;
20190908_092141;0.515;9.464;-2.440;0.002;-0.094;0.016;
20190908_092141;0.572;9.392;-2.423;-0.001;-0.094;0.016;
20190908_092141;0.558;9.615;-2.454;-0.002;-0.095;0.017;
20190908_092141;0.565;9.701;-2.409;-0.003;-0.093;0.017;
20190908_092141;0.450;9.541;-2.334;-0.007;-0.092;0.016;
20190908_092141;0.390;9.301;-2.377;-0.001;-0.093;0.016;
20190908_092142;0.371;9.258;-2.337;-0.003;-0.092;0.016;
20190908_092142;0.388;9.361;-2.349;0.000;-0.092;0.017;
20190908_092142;0.443;9.481;-2.375;0.000;-0.091;0.016;
20190908_092142;0.464;9.632;-2.349;-0.001;-0.090;0.017;
20190908_092142;0.371;9.538;-2.397;-0.001;-0.091;0.016;
20190908_092142;0.321;9.448;-2.375;-0.003;-0.090;0.017;
20190908_092142;0.323;9.299;-2.351;-0.001;-0.089;0.017;
20190908_092142;0.438;9.469;-2.327;0.001;-0.089;0.015;
20190908_092142;0.414;9.491;-2.421;0.002;-0.089;0.017;
20190908_092143;0.371;9.527;-2.358;-0.002;-0.090;0.016;
20190908_092143;0.362;9.524;-2.433;0.001;-0.089;0.017;
20190908_092143;0.354;9.543;-2.392;-0.001;-0.088;0.017;
20190908_092143;0.369;9.637;-2.452;0.000;-0.087;0.017;
20190908_092143;0.350;9.498;-2.397;-0.004;-0.087;0.015;
20190908_092143;0.359;9.337;-2.358;-0.002;-0.087;0.017;
20190908_092143;0.354;9.354;-2.332;-0.001;-0.086;0.016;
20190908_092143;0.373;9.402;-2.392;0.008;-0.087;0.016;
20190908_092143;0.357;9.402;-2.339;-0.002;-0.085;0.016;
20190908_092143;0.352;9.546;-2.423;0.005;-0.088;0.016;
20190908_092144;0.306;9.550;-2.394;-0.001;-0.086;0.016;
20190908_092144;0.362;9.663;-2.502;0.004;-0.087;0.017;
20190908_092144;0.362;9.306;-2.301;-0.005;-0.084;0.017;
20190908_092144;0.352;9.261;-2.342;0.001;-0.086;0.014;
20190908_092144;0.357;9.222;-2.303;0.003;-0.085;0.014;
20190908_092144;0.285;9.297;-2.322;0.004;-0.085;0.016;
20190908_092144;0.268;9.622;-2.330;0.001;-0.083;0.017;
20190908_092144;0.196;9.507;-2.382;0.000;-0.084;0.017;
20190908_092144;0.225;9.570;-2.399;0.002;-0.084;0.017;
20190908_092144;0.237;9.469;-2.418;-0.004;-0.084;0.017;
20190908_092145;0.309;9.448;-2.370;0.000;-0.084;0.017;
20190908_092145;0.287;9.244;-2.339;-0.005;-0.083;0.019;
20190908_092145;0.249;9.366;-2.363;0.001;-0.084;0.019;
20190908_092145;0.283;9.560;-2.375;0.000;-0.081;0.020;
20190908_092145;0.323;9.515;-2.466;0.005;-0.085;0.017;
20190908_092145;0.321;9.503;-2.380;0.000;-0.081;0.022;
20190908_092145;0.400;9.565;-2.421;0.002;-0.081;0.019;
20190908_092145;0.491;9.584;-2.456;0.001;-0.079;0.019;
20190908_092145;0.417;9.531;-2.406;0.003;-0.079;0.016;
20190908_092146;0.462;9.515;-2.425;0.003;-0.079;0.015;
20190908_092146;0.445;9.550;-2.394;0.000;-0.077;0.016;
20190908_092146;0.383;9.388;-2.385;-0.002;-0.075;0.016;
20190908_092146;0.340;9.333;-2.433;0.002;-0.076;0.015;
20190908_092146;0.359;9.364;-2.397;0.000;-0.074;0.014;
20190908_092146;0.263;9.402;-2.306;0.001;-0.074;0.015;
20190908_092146;0.306;9.560;-2.442;0.001;-0.072;0.015;
20190908_092146;0.333;9.424;-2.375;-0.001;-0.072;0.017;
20190908_092146;0.359;9.498;-2.399;-0.001;-0.071;0.014;
20190908_092146;0.364;9.445;-2.459;-0.003;-0.069;0.014;
20190908_092147;0.362;9.450;-2.404;0.002;-0.069;0.015;
20190908_092147;0.366;9.510;-2.394;-0.001;-0.068;0.016;
20190908_092147;0.369;9.443;-2.361;0.001;-0.065;0.015;
20190908_092147;0.311;9.361;-2.370;-0.001;-0.065;0.015;
20190908_092147;0.297;9.416;-2.416;-0.001;-0.065;0.013;
20190908_092147;0.340;9.407;-2.449;0.000;-0.063;0.015;
20190908_092147;0.323;9.464;-2.363;0.000;-0.064;0.014;
20190908_092147;0.333;9.538;-2.399;0.003;-0.062;0.015;
20190908_092147;0.378;9.507;-2.437;0.000;-0.061;0.015;
20190908_092148;0.259;9.196;-2.310;0.000;-0.060;0.015;
20190908_092148;0.268;9.412;-2.380;0.003;-0.060;0.017;
20190908_092148;0.268;9.529;-2.411;0.001;-0.060;0.014;
20190908_092148;0.335;9.809;-2.509;0.004;-0.060;0.014;
20190908_092148;0.354;9.670;-2.516;-0.001;-0.060;0.013;
20190908_092148;0.311;9.443;-2.392;-0.003;-0.058;0.013;
20190908_092148;0.287;9.263;-2.380;0.002;-0.057;0.014;
20190908_092148;0.335;9.309;-2.442;0.000;-0.058;0.012;
20190908_092148;0.407;9.491;-2.409;0.000;-0.057;0.012;
20190908_092148;0.354;9.481;-2.421;0.001;-0.056;0.013;
20190908_092149;0.352;9.574;-2.449;0.004;-0.054;0.013;
20190908_092149;0.318;9.548;-2.375;-0.003;-0.053;0.014;
20190908_092149;0.316;9.479;-2.375;-0.001;-0.052;0.013;
20190908_092149;0.297;9.531;-2.483;0.001;-0.051;0.013;
20190908_092149;0.294;9.495;-2.416;-0.001;-0.052;0.011;
20190908_092149;0.304;9.467;-2.310;-0.002;-0.049;0.012;
20190908_092149;0.352;9.582;-2.404;-0.001;-0.048;0.012;
20190908_092149;0.294;9.459;-2.322;-0.001;-0.048;0.012;
20190908_092149;0.323;9.414;-2.425;-0.001;-0.048;0.010;
20190908_092150;0.323;9.404;-2.399;0.001;-0.048;0.010;
20190908_092150;0.345;9.481;-2.315;0.001;-0.047;0.012;
20190908_092150;0.354;9.373;-2.389;-0.003;-0.045;0.012;
20190908_092150;0.347;9.448;-2.389;0.002;-0.043;0.010;
20190908_092150;0.421;9.479;-2.421;0.000;-0.045;0.010;
20190908_092150;0.364;9.589;-2.389;-0.003;-0.042;0.010;
20190908_092150;0.402;9.538;-2.365;0.003;-0.044;0.009;
20190908_092150;0.443;9.479;-2.389;-0.003;-0.041;0.008;
20190908_092150;0.362;9.254;-2.365;0.002;-0.041;0.006;
20190908_092150;0.350;9.306;-2.363;0.002;-0.041;0.007;
20190908_092151;0.352;9.337;-2.330;-0.001;-0.039;0.007;
20190908_092151;0.280;9.474;-2.382;0.001;-0.039;0.008;
20190908_092151;0.287;9.665;-2.394;0.002;-0.038;0.008;
20190908_092151;0.280;9.594;-2.389;0.001;-0.038;0.008;
20190908_092151;0.230;9.550;-2.387;-0.003;-0.037;0.009;
20190908_092151;0.180;9.359;-2.334;-0.001;-0.036;0.008;
20190908_092151;0.218;9.388;-2.342;0.000;-0.036;0.009;
20190908_092151;0.318;9.388;-2.423;-0.001;-0.035;0.007;
20190908_092151;0.323;9.457;-2.339;0.000;-0.035;0.008;
20190908_092152;0.409;9.582;-2.423;0.000;-0.037;0.007;
20190908_092152;0.402;9.608;-2.449;0.005;-0.037;0.007;
20190908_092152;0.306;9.625;-2.416;-0.002;-0.035;0.008;
20190908_092152;0.283;9.467;-2.363;-0.001;-0.034;0.008;
20190908_092152;0.251;9.388;-2.313;-0.002;-0.034;0.008;
20190908_092152;0.223;9.438;-2.356;0.000;-0.034;0.007;
20190908_092152;0.227;9.412;-2.322;0.001;-0.032;0.009;
20190908_092152;0.278;9.591;-2.404;-0.001;-0.032;0.008;
20190908_092152;0.275;9.445;-2.363;0.001;-0.031;0.007;
20190908_092152;0.335;9.601;-2.421;-0.001;-0.030;0.007;
20190908_092153;0.249;9.448;-2.337;-0.003;-0.032;0.006;
20190908_092153;0.321;9.500;-2.342;0.002;-0.031;0.007;
20190908_092153;0.326;9.457;-2.334;0.000;-0.029;0.006;
20190908_092153;0.328;9.440;-2.342;0.000;-0.030;0.005;
20190908_092153;0.297;9.543;-2.380;0.001;-0.028;0.005;
20190908_092153;0.321;9.459;-2.449;0.000;-0.029;0.005;
20190908_092153;0.273;9.541;-2.361;-0.001;-0.028;0.005;
20190908_092153;0.388;9.565;-2.354;0.001;-0.028;0.006;
20190908_092153;0.299;9.512;-2.404;0.001;-0.027;0.005;
20190908_092154;0.278;9.531;-2.468;-0.003;-0.025;0.005;
20190908_092154;0.215;9.330;-2.255;0.000;-0.025;0.006;
20190908_092154;0.220;9.457;-2.401;0.002;-0.023;0.006;
20190908_092154;0.302;9.455;-2.435;-0.001;-0.023;0.005;
20190908_092154;0.287;9.505;-2.375;0.001;-0.024;0.004;
20190908_092154;0.340;9.565;-2.368;-0.001;-0.020;0.005;
20190908_092154;0.278;9.378;-2.375;0.004;-0.021;0.005;
20190908_092154;0.232;9.517;-2.351;0.002;-0.020;0.006;
20190908_092154;0.218;9.510;-2.397;0.001;-0.018;0.005;
20190908_092155;0.199;9.491;-2.315;-0.001;-0.018;0.004;
20190908_092155;0.211;9.471;-2.468;0.003;-0.015;0.004;
20190908_092155;0.175;9.598;-2.346;0.002;-0.016;0.005;
20190908_092155;0.232;9.313;-2.282;-0.002;-0.015;0.005;
20190908_092155;0.239;9.464;-2.397;0.002;-0.013;0.004;
20190908_092155;0.239;9.536;-2.425;0.005;-0.014;0.003;
20190908_092155;0.280;9.486;-2.377;0.000;-0.013;0.005;
20190908_092155;0.244;9.373;-2.286;-0.004;-0.012;0.004;
20190908_092155;0.239;9.462;-2.377;0.000;-0.011;0.003;
20190908_092155;0.318;9.589;-2.449;0.009;-0.011;0.001;
20190908_092156;0.299;9.448;-2.325;-0.005;-0.008;0.001;
20190908_092156;0.223;9.488;-2.282;-0.001;-0.008;0.001;
20190908_092156;0.299;9.510;-2.500;0.002;-0.008;0.003;
20190908_092156;0.323;9.586;-2.284;-0.005;-0.008;0.001;
20190908_092156;0.170;9.546;-2.385;0.003;-0.009;0.000;
20190908_092156;0.103;9.491;-2.394;0.004;-0.008;-0.001;
20190908_092156;0.160;9.656;-2.454;-0.002;-0.008;0.003;
20190908_092156;0.172;9.412;-2.461;-0.001;-0.007;0.001;
20190908_092156;0.163;9.495;-2.306;-0.002;-0.006;0.000;
20190908_092157;0.122;9.385;-2.421;0.001;-0.007;0.001;
20190908_092157;0.069;9.505;-2.325;-0.001;-0.006;0.000;
20190908_092157;0.069;9.237;-2.399;-0.002;-0.006;0.003;
20190908_092157;0.134;9.536;-2.459;0.004;-0.006;0.003;
20190908_092157;0.256;9.524;-2.421;0.004;-0.006;0.001;
20190908_092157;0.196;9.646;-2.385;-0.003;-0.005;0.004;
20190908_092157;0.201;9.558;-2.401;-0.002;-0.004;0.001;
20190908_092157;0.172;9.462;-2.397;0.002;-0.005;0.003;
20190908_092157;0.244;9.529;-2.370;-0.001;-0.005;-0.001;
20190908_092157;0.168;9.167;-2.332;0.004;-0.005;0.000;
20190908_092158;0.170;9.495;-2.428;-0.003;-0.004;0.003;
20190908_092158;0.127;9.543;-2.387;0.007;-0.006;0.003;
20190908_092158;0.081;9.457;-2.468;0.001;-0.004;0.003;
20190908_092158;0.175;9.644;-2.421;0.000;-0.004;0.003;
20190908_092158;0.168;9.505;-2.468;0.002;-0.005;0.000;
20190908_092158;0.232;9.491;-2.394;-0.005;-0.005;0.001;
20190908_092158;0.204;9.400;-2.399;-0.003;-0.004;0.004;
20190908_092158;0.206;9.493;-2.437;-0.001;-0.004;0.003;
20190908_092158;0.220;9.445;-2.375;-0.003;-0.004;0.001;
20190908_092159;0.235;9.404;-2.349;0.000;-0.003;0.001;
20190908_092159;0.227;9.431;-2.373;0.000;-0.003;0.003;
20190908_092159;0.218;9.452;-2.392;0.003;-0.004;0.001;
20190908_092159;0.192;9.704;-2.421;0.003;-0.004;0.003;
20190908_092159;0.165;9.610;-2.447;0.002;-0.005;-0.002;
20190908_092159;0.139;9.510;-2.368;-0.002;-0.003;0.000;
20190908_092159;0.206;9.491;-2.358;0.000;-0.004;0.000;
20190908_092159;0.273;9.572;-2.358;-0.003;-0.003;0.000;
20190908_092159;0.225;9.546;-2.392;-0.002;-0.004;-0.001;
20190908_092159;0.194;9.565;-2.440;-0.002;-0.003;0.001;
20190908_092200;0.108;9.651;-2.385;-0.005;-0.003;0.001;
20190908_092200;0.136;9.534;-2.370;-0.001;-0.002;0.001;
20190908_092200;0.144;9.395;-2.363;0.002;-0.002;0.001;
20190908_092200;0.206;9.390;-2.473;0.002;-0.002;0.003;
20190908_092200;0.124;9.321;-2.291;0.002;-0.003;0.000;
20190908_092200;0.215;9.625;-2.478;0.004;-0.004;0.000;
20190908_092200;0.132;9.694;-2.428;-0.002;-0.003;0.001;
20190908_092200;0.122;9.558;-2.461;-0.002;-0.002;0.001;
20190908_092200;0.172;9.586;-2.440;-0.001;-0.003;0.000;
20190908_092201;0.184;9.457;-2.406;-0.002;-0.003;0.003;
20190908_092201;0.101;9.313;-2.358;-0.001;-0.004;0.001;
20190908_092201;0.089;9.347;-2.425;0.004;-0.003;0.003;
20190908_092201;0.146;9.436;-2.423;0.001;-0.002;0.001;
20190908_092201;0.170;9.412;-2.377;0.002;-0.004;0.001;
20190908_092201;0.113;9.407;-2.344;0.000;-0.002;0.001;
20190908_092201;0.067;9.380;-2.423;0.003;-0.002;0.003;
20190908_092201;0.199;9.357;-2.389;0.005;-0.004;0.000;
20190908_092201;0.285;9.620;-2.356;-0.002;-0.002;0.003;
20190908_092201;0.290;9.500;-2.416;-0.003;-0.002;0.004;
20190908_092202;0.215;9.426;-2.437;-0.003;-0.003;0.001;
20190908_092202;0.065;9.297;-2.334;-0.001;-0.003;0.001;
20190908_092202;0.213;9.469;-2.421;0.003;-0.003;0.003;
20190908_092202;0.237;9.682;-2.500;0.002;-0.004;0.001;
20190908_092202;0.290;9.649;-2.392;0.000;-0.004;0.001;
20190908_092202;0.194;9.558;-2.447;0.007;-0.003;0.001;
20190908_092202;0.201;9.450;-2.394;0.002;-0.004;-0.001;
20190908_092202;0.218;9.330;-2.392;-0.001;-0.002;0.003;
