Timestamp;Accel_x;Accel_y;Accel_z;Gyro_x;Gyro_y;Gyro_z;
20190905_113013;-0.086;4.604;8.882;-0.047;-0.097;-0.010;
20190905_113013;-0.280;4.401;8.317;0.053;0.013;-0.008;
20190905_113014;-0.263;4.063;8.535;-0.002;0.062;-0.019;
20190905_113014;-0.297;4.367;8.473;0.016;0.034;-0.019;
20190905_113014;0.057;4.633;8.674;-0.111;0.041;0.043;
20190905_113014;0.057;4.539;8.090;0.032;0.013;0.027;
20190905_113014;0.103;4.530;9.036;0.177;0.342;-0.091;
20190905_113014;-1.259;4.590;7.836;0.283;0.086;0.131;
20190905_113014;-0.237;5.001;9.179;-0.365;0.039;-0.337;
20190905_113014;-0.611;4.429;9.117;-0.426;-0.428;-0.238;
20190905_113014;-0.285;4.326;8.799;0.596;-0.360;0.260;
20190905_113014;1.578;6.055;7.602;1.009;-0.552;-0.197;
20190905_113015;0.915;5.456;8.315;1.219;-1.317;-0.407;
20190905_113015;1.877;6.814;6.165;0.353;-0.737;-0.295;
20190905_113015;0.630;6.742;7.271;0.415;-0.671;-0.260;
20190905_113015;1.961;7.250;6.057;0.097;-0.475;0.005;
20190905_113015;1.566;7.302;5.753;0.128;-0.085;0.149;
20190905_113015;1.671;6.965;5.818;0.188;-0.420;-0.028;
20190905_113015;1.803;7.216;5.432;0.443;-0.238;0.101;
20190905_113015;-0.376;9.890;6.007;1.175;0.658;-1.212;
20190905_113015;1.712;9.263;3.682;1.886;0.477;0.737;
20190905_113016;2.512;7.961;0.445;2.162;0.733;1.014;
20190905_113016;3.117;8.305;0.900;1.096;0.467;0.623;
20190905_113016;2.253;8.823;0.366;0.599;0.333;-0.100;
20190905_113016;3.555;9.108;0.014;-0.176;0.245;0.264;
20190905_113016;1.935;9.000;-0.620;-0.057;0.152;-0.965;
20190905_113016;2.734;9.297;0.093;-0.330;0.085;-0.231;
20190905_113016;1.834;9.618;0.452;-0.237;-0.165;0.160;
20190905_113016;2.157;9.661;0.393;-0.297;-0.105;-0.182;
20190905_113016;0.448;9.993;-0.017;0.280;-0.166;-0.696;
20190905_113016;1.602;9.210;0.809;0.090;-0.142;-0.355;
20190905_113017;-0.127;9.112;1.437;-0.294;-0.024;-0.850;
20190905_113017;-1.846;9.711;0.266;0.811;-0.643;-0.714;
20190905_113017;-1.374;11.092;0.132;0.086;0.204;-0.014;
20190905_113017;0.206;8.959;-1.621;1.809;-0.171;1.080;
20190905_113017;0.802;8.487;-3.309;2.111;0.397;0.727;
20190905_113017;1.671;8.076;-5.334;0.854;0.523;0.510;
20190905_113017;1.396;7.968;-5.219;0.844;0.327;-0.024;
20190905_113017;1.650;7.784;-3.699;1.003;0.570;-0.116;
20190905_113017;1.757;6.905;-6.912;0.164;0.366;-0.057;
20190905_113018;2.569;6.424;-7.616;0.925;0.419;-0.245;
20190905_113018;2.868;5.978;-7.563;-0.285;0.046;0.047;
20190905_113018;2.660;6.316;-6.823;-0.272;0.044;0.060;
20190905_113018;0.175;10.044;-8.459;-0.580;-0.103;-0.252;
20190905_113018;3.287;9.467;-5.552;-0.552;-0.028;-0.037;
20190905_113018;2.586;8.124;-7.515;-0.406;-0.855;0.293;
20190905_113018;2.641;9.764;-5.045;-0.178;0.009;0.293;
20190905_113018;2.914;8.322;-5.871;-0.214;-0.386;0.086;
20190905_113018;2.954;8.739;-4.444;-0.551;0.185;-0.117;
20190905_113018;2.607;7.779;-4.549;-0.251;0.152;-0.273;
20190905_113019;0.907;9.220;-6.237;0.484;0.227;-0.520;
20190905_113019;4.120;7.997;-5.179;-0.234;0.190;0.083;
20190905_113019;2.411;8.243;-3.725;-0.274;-0.023;-0.537;
20190905_113019;0.759;8.796;-6.622;0.295;0.237;-1.778;
20190905_113019;-1.192;8.794;-4.760;-0.361;-0.137;-0.544;
20190905_113019;0.821;8.511;-5.856;0.338;0.088;0.239;
20190905_113019;0.452;8.260;-6.120;-0.286;0.030;0.037;
20190905_113019;0.594;8.873;-4.063;-0.063;0.148;0.300;
20190905_113019;0.498;8.554;-4.700;-0.114;-0.190;-0.763;
20190905_113019;-3.555;9.342;-3.713;-0.446;-0.100;-0.630;
20190905_113020;-0.575;9.282;-3.905;-0.085;-0.002;0.091;
20190905_113020;-0.304;8.310;-3.824;-0.073;0.006;0.064;
20190905_113020;-1.176;9.031;-3.845;-0.078;-0.003;0.034;
20190905_113020;-0.994;9.098;-3.852;-0.049;0.009;0.079;
20190905_113020;-0.443;9.067;-3.697;-0.132;0.029;0.284;
20190905_113020;-0.579;9.196;-3.606;-0.064;0.006;0.080;
20190905_113020;-0.029;9.481;-3.378;-0.120;0.029;0.237;
20190905_113020;0.163;9.448;-3.050;-0.049;0.013;0.143;
20190905_113020;-1.405;9.191;-3.548;0.158;0.033;0.180;
20190905_113021;0.809;9.098;-3.900;-0.008;0.120;1.329;
20190905_113021;3.424;8.650;-5.042;-0.294;-0.036;-0.100;
20190905_113021;2.267;8.933;-3.141;-0.051;0.001;-0.001;
20190905_113021;1.978;9.129;-3.050;0.015;0.017;-0.194;
20190905_113021;1.537;9.143;-2.593;-0.028;0.004;-0.124;
20190905_113021;0.587;9.357;-2.854;0.015;0.019;-0.175;
20190905_113021;1.022;9.292;-2.806;0.003;0.011;-0.079;
20190905_113021;0.182;9.608;-2.650;-0.008;0.007;-0.084;
20190905_113021;1.800;9.160;-2.715;0.002;-0.006;0.035;
20190905_113021;0.663;9.852;-2.677;-0.016;-0.000;-0.169;
20190905_113022;0.752;9.371;-2.602;-0.010;-0.010;-0.002;
20190905_113022;0.603;9.436;-2.804;0.003;0.009;0.000;
20190905_113022;0.632;9.321;-2.792;-0.003;-0.005;-0.013;
20190905_113022;0.584;9.239;-2.792;-0.003;0.002;-0.010;
20190905_113022;0.548;9.364;-2.847;0.009;0.003;-0.005;
20190905_113022;0.045;9.708;-2.796;0.018;0.044;-0.332;
20190905_113022;0.120;8.748;-2.751;-0.012;0.027;0.003;
20190905_113022;0.247;9.476;-2.885;0.008;-0.002;0.005;
20190905_113022;0.512;9.500;-2.775;0.002;0.005;-0.006;
20190905_113023;0.436;9.136;-2.696;0.009;0.008;-0.126;
20190905_113023;0.139;9.419;-2.907;0.013;0.013;0.010;
20190905_113023;0.357;10.329;-2.777;-0.003;0.014;0.006;
20190905_113023;0.132;9.294;-2.796;0.004;0.010;-0.004;
20190905_113023;-0.292;9.902;-2.866;0.006;0.010;-0.134;
20190905_113023;-0.225;9.239;-2.885;0.007;0.029;0.003;
20190905_113023;0.055;9.364;-2.725;-0.003;0.013;0.002;
20190905_113023;0.462;9.349;-2.890;0.001;0.018;0.001;
20190905_113023;0.287;9.421;-2.569;-0.025;0.014;0.001;
20190905_113023;-0.022;9.541;-2.825;0.025;0.041;0.000;
20190905_113024;0.048;9.299;-2.787;-0.006;0.019;-0.003;
20190905_113024;0.187;9.323;-2.741;0.005;0.035;-0.002;
20190905_113024;0.227;9.510;-2.930;0.008;0.038;-0.004;
20190905_113024;0.603;9.481;-2.679;-0.006;0.037;0.032;
20190905_113024;0.153;9.957;-2.818;0.008;0.057;-0.012;
20190905_113024;0.194;9.479;-2.715;0.002;0.118;-0.007;
20190905_113024;0.189;9.452;-2.646;-0.005;-0.026;-0.011;
20190905_113024;0.012;9.005;-2.591;-0.019;0.014;-0.049;
20190905_113024;-0.091;8.904;-2.787;0.009;0.038;-0.063;
20190905_113025;-0.433;9.165;-2.617;-0.001;0.022;-0.068;
20190905_113025;-0.395;9.122;-2.725;0.007;0.029;-0.045;
20190905_113025;-0.287;9.256;-2.698;0.005;0.008;0.003;
20190905_113025;-0.081;9.656;-2.758;0.005;0.035;0.151;
20190905_113025;0.651;9.768;-2.837;0.006;0.042;0.202;
20190905_113025;-0.242;9.445;-2.796;0.007;0.035;-0.014;
20190905_113025;0.584;10.427;-2.758;-0.009;0.039;0.002;
20190905_113025;-0.055;9.488;-2.861;0.004;0.029;-0.013;
20190905_113025;0.089;9.574;-2.768;0.006;0.052;-0.011;
20190905_113025;-0.077;9.543;-2.772;-0.003;0.050;-0.013;
20190905_113026;-0.433;9.618;-2.852;-0.011;0.030;-0.022;
20190905_113026;-0.239;9.321;-2.749;-0.010;0.050;-0.001;
20190905_113026;-0.242;8.325;-2.717;-0.008;0.019;-0.008;
20190905_113026;-0.211;9.292;-2.693;0.003;0.040;-0.006;
20190905_113026;-0.251;9.194;-2.591;-0.002;0.042;-0.007;
20190905_113026;-0.134;9.493;-2.705;0.008;0.036;-0.010;
20190905_113026;-0.165;9.438;-2.674;0.009;0.058;-0.007;
20190905_113026;0.010;9.658;-2.868;0.009;0.041;-0.007;
20190905_113026;0.045;9.476;-2.823;-0.000;0.040;-0.011;
20190905_113027;-0.045;9.546;-2.739;-0.004;0.041;-0.012;
20190905_113027;-0.010;9.445;-2.775;-0.005;0.049;-0.012;
20190905_113027;-0.007;9.467;-2.713;-0.006;0.041;-0.012;
20190905_113027;-0.005;9.452;-2.772;-0.000;0.043;-0.010;
20190905_113027;-0.093;9.503;-2.684;-0.008;0.041;-0.010;
20190905_113027;-0.055;9.572;-2.605;0.012;0.040;-0.012;
20190905_113027;-0.192;9.799;-3.139;0.093;0.055;-0.062;
20190905_113027;-0.184;9.268;-2.772;0.003;0.033;-0.010;
20190905_113027;-0.309;9.158;-2.658;-0.003;0.043;-0.010;
20190905_113027;-0.220;9.218;-2.725;0.001;0.049;-0.010;
20190905_113028;-0.127;9.541;-2.842;0.008;0.047;-0.016;
20190905_113028;0.026;9.586;-2.677;-0.005;0.048;-0.179;
20190905_113028;-0.330;9.637;-2.705;-0.002;0.046;-0.006;
20190905_113028;-0.685;9.740;-2.653;-0.006;0.048;0.014;
20190905_113028;-0.426;9.436;-2.710;-0.004;0.051;-0.001;
20190905_113028;-0.175;9.038;-2.670;-0.012;0.049;-0.016;
20190905_113028;0.069;9.146;-2.765;0.007;0.050;0.023;
20190905_113028;0.297;9.232;-2.761;-0.005;0.054;0.111;
20190905_113028;-0.338;9.498;-2.715;0.002;0.057;-0.015;
20190905_113028;-0.436;9.831;-2.801;0.002;0.052;-0.015;
20190905_113029;-0.352;9.754;-2.648;-0.006;0.053;-0.015;
20190905_113029;-0.457;9.740;-2.734;-0.001;0.049;-0.017;
20190905_113029;-0.438;9.515;-2.557;-0.018;0.048;-0.017;
20190905_113029;-0.503;9.311;-2.665;0.002;0.052;-0.014;
20190905_113029;-0.486;9.433;-2.643;-0.006;0.055;-0.015;
20190905_113029;-0.275;9.373;-2.602;0.005;0.055;-0.011;
20190905_113029;-0.141;9.474;-2.830;0.003;0.051;-0.012;
20190905_113029;-0.438;9.294;-2.641;-0.009;0.051;-0.011;
20190905_113029;-0.555;9.218;-2.662;0.002;0.053;-0.010;
20190905_113030;-0.247;9.294;-2.715;-0.003;0.058;-0.007;
20190905_113030;-0.213;9.390;-2.729;-0.004;0.056;-0.008;
20190905_113030;-0.405;9.493;-2.648;-0.002;0.044;-0.008;
20190905_113030;-0.584;9.555;-2.698;0.001;0.057;-0.011;
20190905_113030;-0.599;9.416;-2.581;-0.008;0.051;-0.008;
20190905_113030;-0.340;9.450;-2.605;0.006;0.054;-0.012;
20190905_113030;-0.048;9.249;-2.725;0.004;0.057;-0.014;
20190905_113030;-0.017;9.115;-2.617;-0.005;0.059;-0.014;
20190905_113030;-0.249;9.495;-2.808;0.006;0.063;-0.011;
20190905_113030;-0.570;9.424;-2.753;-0.012;0.064;-0.007;
20190905_113031;-0.572;9.301;-2.679;-0.004;0.055;-0.005;
20190905_113031;-0.517;9.474;-2.784;0.006;0.052;-0.004;
20190905_113031;-0.467;9.165;-2.636;-0.014;0.052;-0.005;
20190905_113031;-0.764;9.280;-2.600;0.005;0.049;-0.005;
20190905_113031;-0.560;9.354;-2.816;0.009;0.051;-0.006;
20190905_113031;-0.244;9.254;-2.598;-0.009;0.063;-0.008;
20190905_113031;-0.469;9.634;-2.835;0.017;0.060;-0.012;
20190905_113031;-0.373;9.529;-2.737;-0.012;0.053;-0.015;
20190905_113031;-0.170;9.651;-2.772;0.005;0.064;-0.013;
20190905_113032;-0.096;9.407;-2.777;-0.006;0.037;-0.017;
20190905_113032;-0.426;9.328;-2.727;0.005;0.058;-0.016;
20190905_113032;-0.599;9.548;-2.875;0.012;0.051;-0.014;
20190905_113032;-0.441;9.268;-2.772;0.001;0.054;-0.016;
20190905_113032;-0.235;9.579;-2.816;0.011;0.066;-0.008;
20190905_113032;-0.378;9.215;-2.710;-0.014;0.048;0.015;
20190905_113032;-0.651;9.268;-2.691;0.006;0.044;0.003;
20190905_113032;-1.027;9.541;-2.947;0.060;0.044;-0.018;
20190905_113032;0.618;8.935;-3.002;0.067;0.058;0.055;
20190905_113032;-0.074;9.555;-3.259;0.081;0.072;0.026;
20190905_113033;-0.371;10.118;-2.923;0.161;0.076;0.200;
20190905_113033;-0.117;9.285;-3.065;0.074;0.044;-0.055;
20190905_113033;0.158;9.414;-3.129;0.029;0.052;-0.013;
20190905_113033;-0.139;9.256;-3.160;-0.001;0.044;-0.051;
20190905_113033;-0.630;7.628;-3.189;0.027;0.046;-0.170;
20190905_113033;-0.632;9.421;-2.897;-0.050;0.062;0.093;
20190905_113033;-0.285;9.120;-3.223;-0.009;0.041;0.051;
20190905_113033;-0.414;9.318;-3.134;-0.034;0.051;0.011;
20190905_113033;-0.261;9.254;-3.156;-0.071;0.046;0.031;
20190905_113034;0.182;8.945;-2.887;-0.041;0.038;0.079;
20190905_113034;-0.194;9.361;-3.519;0.017;0.026;-0.101;
20190905_113034;0.105;9.292;-2.780;-0.049;0.044;-0.084;
20190905_113034;-0.096;9.606;-2.887;0.040;0.040;0.001;
20190905_113034;-0.175;9.658;-3.012;0.003;0.038;-0.011;
20190905_113034;-0.376;9.321;-2.638;-0.011;0.047;-0.005;
20190905_113034;-0.268;9.560;-2.741;0.006;0.029;-0.019;
20190905_113034;-0.287;9.309;-2.741;-0.010;0.032;-0.004;
20190905_113034;-0.072;9.167;-2.653;0.002;0.031;0.000;
20190905_113034;-0.292;9.359;-2.804;0.013;0.031;-0.002;
20190905_113035;-0.218;9.462;-2.765;-0.008;0.023;-0.001;
20190905_113035;-0.077;9.493;-2.787;0.005;0.033;0.004;
20190905_113035;-0.124;9.601;-2.794;0.003;0.022;0.000;
20190905_113035;-0.232;9.342;-2.789;-0.003;0.026;0.013;
20190905_113035;0.299;9.445;-2.667;0.011;0.016;0.040;
20190905_113035;0.211;9.402;-3.433;0.081;0.029;-0.010;
20190905_113035;0.113;9.433;-2.466;-0.006;0.024;0.013;
20190905_113035;0.127;9.629;-2.916;0.048;0.025;-0.014;
20190905_113035;0.180;9.345;-2.842;-0.229;0.014;-0.001;
20190905_113036;0.165;9.388;-3.361;0.291;0.034;-0.008;
20190905_113036;0.204;9.175;-2.358;-0.176;0.021;0.000;
20190905_113036;0.285;9.443;-2.655;0.002;0.018;-0.001;
20190905_113036;0.232;9.606;-2.741;0.003;0.016;-0.002;
20190905_113036;0.022;9.505;-2.739;-0.001;0.018;-0.004;
20190905_113036;0.132;9.450;-2.792;-0.001;0.017;-0.004;
20190905_113036;0.302;9.438;-2.746;-0.002;0.017;-0.005;
20190905_113036;0.220;9.388;-2.871;0.008;0.017;-0.004;
20190905_113036;0.053;9.313;-2.705;-0.005;0.019;-0.003;
20190905_113037;0.081;9.455;-2.873;0.011;0.020;-0.001;
20190905_113037;0.263;9.524;-2.832;-0.004;0.016;-0.003;
20190905_113037;0.177;9.493;-2.796;0.002;0.017;-0.001;
20190905_113037;-0.098;9.404;-2.849;-0.002;0.019;-0.002;
20190905_113037;0.105;9.457;-2.739;-0.002;0.016;-0.004;
20190905_113037;0.333;9.388;-2.763;-0.002;0.015;-0.003;
20190905_113037;0.283;9.402;-2.746;-0.004;0.013;-0.003;
20190905_113037;0.086;9.467;-2.713;-0.001;0.007;-0.004;
20190905_113037;0.096;9.402;-2.739;-0.005;0.015;-0.004;
20190905_113037;0.184;9.299;-2.729;0.003;0.016;-0.001;
20190905_113038;0.124;9.443;-2.751;0.004;0.015;-0.002;
20190905_113038;0.096;9.349;-2.756;-0.000;0.016;-0.002;
20190905_113038;0.093;9.407;-2.756;0.006;0.014;0.000;
20190905_113038;-0.010;9.527;-2.775;-0.000;0.014;-0.004;
20190905_113038;0.012;9.536;-2.768;0.001;0.020;-0.003;
20190905_113038;0.158;9.527;-2.883;0.009;0.015;-0.003;
20190905_113038;0.187;9.443;-2.715;-0.009;0.014;-0.004;
20190905_113038;0.108;9.510;-2.873;0.011;0.014;-0.004;
20190905_113038;0.146;9.383;-2.710;-0.011;0.011;-0.005;
20190905_113038;0.294;9.467;-2.737;0.008;0.013;-0.004;
20190905_113039;0.220;9.586;-2.856;0.003;0.015;-0.003;
20190905_113039;-0.057;9.476;-2.665;-0.003;0.010;-0.043;
20190905_113039;0.163;9.457;-2.811;-0.001;0.006;0.003;
20190905_113039;0.237;9.313;-2.693;-0.004;0.010;-0.003;
20190905_113039;0.067;9.369;-2.646;0.008;0.010;0.000;
20190905_113039;0.117;9.448;-2.772;0.069;0.009;-0.002;
20190905_113039;0.184;9.505;-3.266;-0.174;0.002;-0.004;
20190905_113039;0.026;9.352;-2.660;-0.006;0.008;0.006;
20190905_113039;0.249;9.402;-2.684;0.015;0.010;-0.001;
20190905_113040;0.168;9.340;-2.737;-0.016;0.009;0.001;
20190905_113040;0.345;9.361;-2.768;0.032;0.007;0.010;
20190905_113040;0.156;9.474;-2.957;0.018;0.007;-0.005;
20190905_113040;0.170;9.553;-2.763;-0.044;0.010;-0.004;
20190905_113040;0.158;9.488;-2.868;0.002;0.008;-0.002;
20190905_113040;0.321;9.254;-2.739;-0.004;0.009;-0.003;
20190905_113040;0.196;9.366;-2.679;0.003;0.008;-0.001;
20190905_113040;0.060;9.318;-2.780;-0.000;0.007;-0.002;
20190905_113040;0.129;9.244;-2.610;-0.001;0.008;-0.001;
20190905_113041;0.215;9.421;-2.861;0.018;0.008;0.000;
20190905_113041;0.218;9.428;-2.739;-0.005;0.006;-0.001;
20190905_113041;0.201;9.548;-2.844;0.018;0.010;0.001;
20190905_113041;0.163;9.646;-2.902;-0.001;0.010;0.000;
20190905_113041;0.165;9.495;-2.844;0.006;0.009;-0.001;
20190905_113041;0.184;9.517;-2.794;-0.001;0.010;-0.001;
20190905_113041;0.103;9.385;-2.852;-0.001;0.010;-0.002;
20190905_113041;0.184;9.318;-2.696;-0.008;0.010;-0.003;
20190905_113041;0.232;9.498;-2.840;0.009;0.014;-0.001;
20190905_113041;0.227;9.421;-2.818;-0.008;0.013;-0.003;
20190905_113042;0.098;9.383;-2.753;-0.001;0.014;-0.002;
20190905_113042;0.168;9.402;-2.868;0.003;0.011;-0.001;
20190905_113042;-0.019;9.304;-2.684;-0.010;0.014;-0.004;
20190905_113042;0.223;9.201;-2.782;0.014;0.016;-0.001;
20190905_113042;0.156;9.402;-2.777;-0.001;0.013;-0.003;
20190905_113042;0.151;9.450;-2.753;0.011;0.014;-0.003;
20190905_113042;0.105;9.601;-2.897;-0.000;0.016;-0.002;
20190905_113042;0.012;9.388;-2.784;0.001;0.016;-0.001;
20190905_113042;0.000;9.646;-2.890;0.005;0.016;-0.001;
20190905_113043;0.172;9.318;-2.753;-0.009;0.013;-0.002;
20190905_113043;-0.017;9.488;-2.835;0.011;0.018;0.000;
20190905_113043;0.093;9.421;-2.777;-0.009;0.014;-0.001;
20190905_113043;0.172;9.407;-2.787;0.006;0.015;0.001;
20190905_113043;0.170;9.426;-2.761;-0.001;0.013;-0.001;
20190905_113043;0.038;9.471;-2.808;0.005;0.016;0.000;
20190905_113043;0.225;9.486;-2.777;-0.000;0.013;-0.002;
20190905_113043;0.141;9.515;-2.782;0.003;0.014;-0.001;
20190905_113043;0.127;9.325;-2.796;-0.002;0.013;-0.001;
20190905_113043;0.050;9.306;-2.806;0.004;0.015;0.001;
20190905_113044;0.132;9.349;-2.761;-0.002;0.013;0.001;
20190905_113044;0.124;9.122;-2.806;-0.001;0.013;0.002;
20190905_113044;0.172;9.371;-2.875;0.002;0.013;0.001;
20190905_113044;-0.053;9.450;-2.875;0.002;0.014;0.000;
20190905_113044;0.184;9.507;-2.638;0.001;0.014;0.001;
20190905_113044;0.177;9.663;-2.971;0.013;0.013;0.001;
20190905_113044;0.239;9.309;-2.619;-0.027;0.006;-0.001;
20190905_113044;0.232;9.550;-2.866;0.023;0.008;0.000;
20190905_113044;0.268;9.503;-2.849;-0.018;0.005;-0.002;
20190905_113045;0.086;9.596;-2.531;-0.014;0.003;-0.001;
20190905_113045;0.002;9.483;-2.825;0.007;0.004;-0.003;
20190905_113045;0.156;8.973;-2.473;-0.027;0.002;-0.001;
20190905_113045;0.304;9.191;-2.820;0.025;0.003;0.001;
20190905_113045;0.235;9.017;-2.602;-0.026;-0.001;-0.003;
20190905_113045;0.170;9.208;-2.689;0.016;0.002;0.000;
20190905_113045;0.038;9.572;-2.859;-0.004;0.001;0.000;
20190905_113045;0.160;9.340;-2.751;0.003;0.002;0.001;
20190905_113045;0.180;9.701;-2.916;0.018;0.005;0.002;
20190905_113045;0.297;9.833;-2.945;-0.004;0.003;0.003;
20190905_113046;0.299;9.527;-2.696;-0.004;0.002;0.000;
20190905_113046;0.115;9.646;-2.974;0.015;0.005;0.001;
20190905_113046;0.280;9.325;-2.674;-0.022;-0.000;-0.001;
20190905_113046;0.225;9.400;-2.631;0.016;0.006;0.001;
20190905_113046;0.182;9.311;-2.993;0.021;0.005;0.000;
20190905_113046;0.148;9.148;-2.583;-0.027;0.002;-0.001;
20190905_113046;0.285;9.562;-2.916;0.028;0.007;0.000;
20190905_113046;0.122;9.196;-2.787;-0.026;0.003;-0.003;
20190905_113046;-0.026;9.237;-2.732;0.016;0.008;0.001;
20190905_113047;-0.012;9.467;-2.945;0.008;0.007;0.000;
20190905_113047;0.187;9.404;-2.787;-0.006;0.004;0.001;
20190905_113047;0.124;9.440;-2.847;0.007;0.004;0.001;
20190905_113047;0.041;9.558;-2.919;0.008;0.007;0.001;
20190905_113047;0.122;9.606;-2.852;0.002;0.004;0.002;
20190905_113047;0.182;9.594;-2.813;0.001;0.004;0.002;
20190905_113047;0.290;9.493;-2.780;-0.002;0.003;0.001;
20190905_113047;0.141;9.462;-2.727;0.001;0.003;0.001;
20190905_113047;0.170;9.457;-2.794;-0.001;0.003;0.002;
20190905_113047;-0.024;9.275;-2.758;-0.002;0.003;0.001;
20190905_113048;0.182;9.476;-2.777;0.009;0.003;0.003;
20190905_113048;0.180;9.402;-2.737;-0.002;0.002;0.001;
20190905_113048;0.204;9.522;-2.775;0.009;0.003;0.003;
20190905_113048;0.026;9.448;-2.789;0.004;0.003;0.003;
20190905_113048;0.019;9.412;-2.691;-0.001;0.002;0.003;
20190905_113048;0.134;9.594;-2.926;0.006;-0.000;0.001;
20190905_113048;0.302;9.385;-2.612;-0.009;-0.001;0.003;
20190905_113048;0.220;9.426;-2.835;0.019;0.001;0.005;
20190905_113048;0.192;9.426;-2.744;-0.006;-0.003;0.004;
20190905_113048;0.101;9.246;-2.705;0.003;-0.001;0.005;
20190905_113049;0.196;9.297;-2.765;0.005;-0.001;0.005;
20190905_113049;0.448;9.464;-2.729;0.002;-0.008;0.002;
20190905_113049;0.443;9.407;-2.777;-0.000;-0.009;0.001;
20190905_113049;0.182;9.404;-2.749;-0.002;-0.007;-0.001;
20190905_113049;0.215;9.536;-2.844;0.009;-0.006;0.001;
20190905_113049;0.271;9.325;-2.763;-0.008;-0.008;0.000;
20190905_113049;0.426;9.495;-2.801;0.006;-0.008;0.002;
20190905_113049;0.438;9.395;-2.770;-0.006;-0.010;0.002;
20190905_113049;0.357;9.436;-2.734;0.003;-0.003;0.003;
20190905_113050;0.079;9.488;-2.775;-0.003;-0.002;0.002;
20190905_113050;0.144;9.318;-2.729;-0.001;-0.000;0.004;
20190905_113050;0.268;9.527;-2.859;0.003;-0.000;0.004;
20190905_113050;0.120;9.378;-2.761;0.001;0.005;0.003;
20190905_113050;0.211;9.448;-2.811;0.006;0.006;0.003;
20190905_113050;0.385;9.483;-2.794;0.002;0.005;0.002;
20190905_113050;0.342;9.335;-2.686;-0.000;0.007;0.002;
20190905_113050;0.290;9.524;-2.768;0.006;0.009;0.003;
20190905_113050;0.244;9.450;-2.698;-0.012;0.007;0.000;
20190905_113051;0.419;9.448;-2.811;0.006;0.005;0.000;
20190905_113051;0.273;9.436;-2.792;-0.001;0.006;0.001;
20190905_113051;0.199;9.440;-2.813;0.003;0.006;-0.001;
20190905_113051;0.177;9.380;-2.720;-0.003;0.005;-0.001;
20190905_113051;0.247;9.481;-2.746;0.002;0.004;0.001;
20190905_113051;0.397;9.311;-2.746;-0.009;0.002;-0.001;
20190905_113051;0.182;9.373;-2.751;0.003;0.004;0.000;
20190905_113051;0.113;9.361;-2.816;-0.000;0.004;-0.002;
20190905_113051;0.010;9.495;-2.648;-0.003;0.004;0.000;
20190905_113051;0.151;9.479;-2.923;0.014;0.005;0.001;
20190905_113052;0.165;9.206;-2.607;-0.025;0.002;-0.001;
20190905_113052;-0.048;9.608;-2.919;0.028;0.008;0.001;
20190905_113052;0.000;9.347;-2.729;-0.021;0.003;-0.002;
20190905_113052;0.060;9.395;-2.646;0.001;0.004;0.000;
20190905_113052;0.129;9.656;-2.897;0.012;0.002;0.000;
20190905_113052;0.192;9.309;-2.600;-0.021;-0.000;0.000;
20190905_113052;0.084;9.426;-2.854;0.018;0.004;0.002;
20190905_113052;0.151;9.404;-2.720;-0.013;0.003;0.001;
20190905_113052;0.254;9.464;-2.775;0.007;0.001;0.004;
20190905_113053;0.220;9.493;-2.761;0.001;-0.001;0.003;
20190905_113053;0.263;9.280;-2.701;-0.002;0.001;0.003;
20190905_113053;0.201;9.373;-2.703;0.002;0.002;0.004;
20190905_113053;0.395;9.369;-2.746;-0.002;-0.003;0.002;
20190905_113053;0.242;9.333;-2.713;-0.000;-0.001;0.002;
20190905_113053;0.283;9.661;-2.868;0.006;-0.003;0.001;
20190905_113053;0.084;9.335;-2.674;-0.009;-0.003;-0.001;
20190905_113053;0.165;9.462;-2.777;0.014;0.002;0.003;
20190905_113053;0.091;9.452;-2.796;-0.004;-0.001;0.001;
20190905_113053;0.048;9.443;-2.727;0.004;0.001;0.001;
20190905_113054;0.218;9.555;-2.811;0.002;-0.000;0.004;
20190905_113054;0.266;9.450;-2.708;-0.003;-0.002;0.000;
20190905_113054;0.275;9.251;-2.684;-0.001;-0.003;0.002;
20190905_113054;0.141;9.529;-2.830;0.005;-0.001;0.003;
20190905_113054;0.266;9.359;-2.727;-0.008;-0.002;0.003;
20190905_113054;0.634;9.538;-2.787;0.006;-0.002;0.004;
20190905_113054;0.294;9.448;-2.722;-0.005;-0.005;0.003;
20190905_113054;0.124;9.354;-2.770;0.004;-0.001;0.003;
20190905_113054;0.160;9.498;-2.796;-0.002;-0.000;0.003;
20190905_113055;0.163;9.385;-2.830;-0.001;-0.002;0.004;
20190905_113055;0.110;9.448;-2.753;-0.000;-0.000;0.003;
20190905_113055;0.105;9.479;-2.828;0.003;-0.000;0.002;
20190905_113055;0.029;9.232;-2.686;-0.004;-0.002;0.003;
20190905_113055;0.304;9.524;-2.746;0.009;-0.003;0.005;
20190905_113055;0.352;9.416;-2.777;-0.009;-0.005;0.004;
20190905_113055;0.232;9.357;-2.677;0.006;0.001;0.005;
20190905_113055;0.239;9.613;-2.926;0.008;-0.000;0.003;
20190905_113055;0.273;9.572;-2.744;-0.013;-0.006;0.003;
20190905_113056;0.493;9.428;-2.703;0.009;-0.003;0.003;
20190905_113056;0.354;9.299;-2.818;-0.000;-0.002;0.002;
20190905_113056;0.283;9.112;-2.672;-0.008;-0.001;0.002;
20190905_113056;0.373;9.488;-2.796;0.012;-0.003;0.001;
20190905_113056;0.658;9.488;-2.772;-0.005;-0.005;0.000;
20190905_113056;0.196;9.529;-2.825;0.001;-0.001;-0.001;
20190905_113056;0.098;9.555;-2.825;-0.005;-0.002;-0.003;
20190905_113056;0.352;9.407;-2.804;0.001;-0.002;0.001;
20190905_113056;0.323;9.476;-2.753;-0.001;-0.001;0.001;
20190905_113056;0.206;9.373;-2.725;0.001;-0.000;-0.002;
20190905_113057;0.108;9.366;-2.670;-0.001;0.002;0.001;
20190905_113057;0.290;9.414;-2.787;0.005;-0.001;0.000;
20190905_113057;0.311;9.323;-2.720;-0.005;-0.000;0.000;
20190905_113057;0.235;9.462;-2.746;0.006;0.003;0.004;
20190905_113057;0.321;9.452;-2.744;-0.000;0.001;0.003;
20190905_113057;0.266;9.361;-2.761;-0.000;0.001;0.003;
20190905_113057;0.283;9.519;-2.799;-0.000;0.003;0.002;
20190905_113057;0.151;9.395;-2.722;-0.004;0.002;0.000;
20190905_113057;0.402;9.433;-2.794;-0.002;0.001;0.001;
20190905_113058;0.259;9.359;-2.756;-0.002;0.001;0.001;
20190905_113058;0.251;9.096;-2.777;-0.000;0.001;-0.002;
20190905_113058;0.235;9.359;-2.756;-0.003;0.003;-0.003;
20190905_113058;0.268;9.306;-2.780;-0.001;0.002;-0.001;
20190905_113058;0.414;9.412;-2.698;-0.000;0.001;-0.001;
20190905_113058;0.357;9.653;-2.859;0.009;0.005;0.002;
20190905_113058;0.223;9.249;-2.708;-0.015;0.003;0.000;
20190905_113058;0.249;9.510;-2.808;0.019;0.002;0.000;
20190905_113058;0.215;9.507;-2.775;-0.013;0.001;0.001;
20190905_113058;0.079;9.299;-2.753;0.005;0.004;0.000;
20190905_113059;0.096;9.723;-2.808;0.003;0.005;0.003;
20190905_113059;0.326;9.009;-2.746;-0.014;-0.000;0.004;
20190905_113059;0.117;9.141;-2.531;-0.015;-0.000;0.001;
20190905_113059;0.215;9.653;-3.120;0.037;0.004;0.003;
20190905_113059;0.055;9.120;-2.461;-0.058;-0.000;0.000;
20190905_113059;0.306;9.749;-2.749;0.050;0.001;0.003;
20190905_113059;0.381;9.586;-2.959;-0.019;-0.001;0.002;
20190905_113059;0.029;9.225;-2.452;0.001;0.002;0.004;
20190905_113059;0.350;9.639;-3.120;0.025;-0.000;0.001;
20190905_113100;0.555;9.227;-2.682;-0.034;-0.003;0.002;
20190905_113100;0.163;9.431;-2.576;0.019;0.004;0.003;
20190905_113100;0.160;9.618;-2.995;0.014;-0.000;0.001;
20190905_113100;0.069;9.079;-2.516;-0.033;-0.001;0.002;
20190905_113100;0.211;9.586;-2.820;0.028;0.001;0.002;
20190905_113100;0.247;9.297;-2.708;-0.017;-0.003;-0.001;
20190905_113100;0.141;9.421;-2.598;0.016;-0.000;0.000;
20190905_113100;0.500;9.388;-2.765;-0.002;-0.006;-0.003;
20190905_113100;0.457;9.443;-2.868;0.009;-0.000;0.000;
20190905_113100;0.323;9.421;-2.682;-0.001;-0.005;0.002;
20190905_113101;0.421;9.670;-2.782;0.014;-0.001;0.000;
20190905_113101;0.259;9.445;-2.861;-0.004;-0.002;0.002;
20190905_113101;0.012;9.428;-2.583;-0.002;-0.002;0.001;
20190905_113101;0.077;9.313;-2.863;0.011;0.001;0.004;
20190905_113101;0.103;9.385;-2.662;-0.009;-0.000;0.005;
20190905_113101;-0.041;9.239;-2.780;0.008;0.001;0.003;
20190905_113101;0.165;9.558;-2.880;0.005;0.001;0.003;
20190905_113101;0.251;9.445;-2.818;-0.000;-0.003;0.002;
20190905_113101;0.390;9.507;-2.631;0.002;-0.005;0.002;
20190905_113102;0.204;9.553;-2.897;0.012;-0.001;0.003;
20190905_113102;0.215;9.275;-2.591;-0.024;-0.005;0.001;
20190905_113102;0.251;9.395;-2.780;0.021;-0.003;0.001;
20190905_113102;0.323;9.323;-2.799;-0.011;-0.005;0.000;
20190905_113102;0.072;9.426;-2.629;0.004;-0.002;-0.001;
20190905_113102;0.268;9.505;-2.885;0.003;-0.001;0.001;
20190905_113102;0.165;9.364;-2.689;-0.006;-0.002;0.005;
20190905_113102;0.098;9.318;-2.727;0.004;-0.000;0.002;
20190905_113102;0.124;9.397;-2.796;0.003;-0.001;0.003;
20190905_113102;0.136;9.275;-2.749;-0.001;-0.000;0.003;
20190905_113103;0.182;9.352;-2.753;0.003;-0.003;0.003;
20190905_113103;0.242;9.464;-2.897;0.003;-0.001;0.004;
20190905_113103;0.376;9.426;-2.576;-0.008;-0.006;0.004;
20190905_113103;0.326;9.421;-2.928;0.015;0.001;0.003;
20190905_113103;0.316;9.421;-2.624;-0.020;-0.005;0.001;
20190905_113103;0.474;9.445;-2.844;0.020;-0.002;0.002;
20190905_113103;0.582;9.517;-2.835;-0.008;-0.006;0.002;
20190905_113103;0.426;9.507;-2.729;0.009;-0.002;0.003;
20190905_113103;0.345;9.407;-2.859;-0.004;-0.003;0.002;
20190905_113104;0.232;9.524;-2.768;0.008;-0.000;0.002;
20190905_113104;0.194;9.548;-2.818;-0.012;-0.003;0.000;
20190905_113104;0.436;9.503;-2.734;-0.000;-0.003;0.000;
20190905_113104;0.424;9.565;-2.816;0.003;-0.002;0.001;
20190905_113104;0.304;9.325;-2.543;-0.009;-0.001;-0.001;
20190905_113104;0.407;9.445;-2.904;0.013;-0.002;0.000;
20190905_113104;0.105;9.270;-2.571;-0.015;-0.003;-0.003;
20190905_113104;0.268;9.495;-2.847;0.020;-0.000;0.001;
20190905_113104;0.120;9.395;-2.739;-0.013;-0.002;0.001;
20190905_113105;0.187;9.131;-2.643;0.008;0.001;0.003;
20190905_113105;0.074;9.560;-3.007;0.013;-0.000;0.003;
20190905_113105;-0.101;9.414;-2.650;-0.015;0.001;0.003;
20190905_113105;-0.005;9.732;-2.823;0.013;0.002;0.005;
20190905_113105;0.146;9.160;-2.923;-0.010;-0.000;0.004;
20190905_113105;0.053;9.278;-2.792;0.016;0.003;0.006;
20190905_113105;0.108;9.299;-2.952;0.002;-0.000;0.000;
20190905_113105;0.476;9.297;-2.816;-0.000;-0.000;0.001;
20190905_113105;0.658;9.426;-2.916;0.011;0.001;0.002;
20190905_113106;0.429;9.546;-2.868;-0.002;-0.000;0.002;
20190905_113106;0.445;9.493;-2.696;-0.006;-0.002;0.002;
20190905_113106;0.223;9.661;-2.897;0.007;-0.000;0.003;
20190905_113106;0.232;9.400;-2.746;-0.015;-0.006;0.000;
20190905_113106;0.227;9.452;-2.662;0.004;-0.003;0.004;
20190905_113106;0.350;9.390;-2.837;-0.000;-0.005;0.002;
20190905_113106;-0.038;9.206;-2.674;-0.005;-0.000;0.003;
20190905_113106;-0.031;9.481;-2.732;0.006;0.003;0.005;
20190905_113106;0.113;9.383;-2.878;0.001;-0.003;0.001;
20190905_113106;0.259;9.297;-2.605;-0.006;-0.003;0.000;
20190905_113107;0.225;9.737;-2.878;0.017;-0.002;0.002;
20190905_113107;0.172;9.263;-2.693;-0.017;-0.003;0.000;
20190905_113107;0.201;9.510;-2.741;0.024;-0.000;0.003;
20190905_113107;0.673;9.364;-2.909;-0.002;-0.006;0.002;
20190905_113107;0.405;9.237;-2.753;0.003;-0.002;0.000;
20190905_113107;0.141;9.656;-2.998;0.019;-0.000;0.002;
20190905_113107;0.230;9.172;-2.679;-0.022;-0.002;0.003;
20190905_113107;0.572;9.438;-2.784;0.014;-0.005;0.005;
20190905_113107;0.445;9.347;-2.947;-0.009;-0.003;0.002;
20190905_113108;0.192;9.218;-2.679;-0.001;0.002;0.003;
20190905_113108;0.378;9.450;-2.978;0.021;-0.001;0.001;
20190905_113108;0.464;9.323;-2.650;-0.015;-0.002;0.002;
20190905_113108;0.223;9.716;-2.945;0.025;0.001;0.006;
20190905_113108;0.132;9.486;-2.705;-0.028;-0.003;-0.002;
20190905_113108;0.326;9.481;-2.835;0.014;-0.000;0.001;
20190905_113108;0.223;9.383;-2.749;-0.011;-0.003;-0.001;
20190905_113108;0.393;9.244;-2.619;0.003;-0.003;0.001;
20190905_113108;0.261;9.476;-2.832;-0.005;-0.002;0.002;
20190905_113108;0.342;9.361;-2.605;-0.008;-0.002;0.000;
20190905_113109;0.345;9.531;-2.880;0.015;-0.000;-0.001;
20190905_113109;0.280;9.503;-2.653;-0.012;-0.001;-0.001;
20190905_113109;0.235;9.474;-2.792;0.013;-0.001;0.000;
20190905_113109;0.129;9.256;-2.717;-0.006;-0.001;0.000;
20190905_113109;0.177;9.507;-2.828;0.012;-0.001;0.000;
20190905_113109;0.232;9.440;-2.777;-0.010;-0.002;-0.003;
20190905_113109;0.127;9.493;-2.772;0.008;0.001;-0.002;
20190905_113109;0.132;9.570;-2.813;-0.006;-0.000;0.001;
20190905_113109;0.108;9.416;-2.715;0.001;0.001;0.001;
20190905_113110;0.311;9.440;-2.765;-0.003;0.001;0.001;
20190905_113110;0.182;9.311;-2.629;-0.004;0.002;0.001;
20190905_113110;0.139;9.450;-2.808;0.009;0.003;0.000;
20190905_113110;0.170;9.529;-2.696;-0.009;0.003;0.002;
20190905_113110;0.239;9.321;-2.725;0.003;0.003;0.002;
20190905_113110;0.156;9.567;-2.837;0.003;0.004;0.001;
20190905_113110;0.129;9.215;-2.749;-0.005;0.004;-0.001;
20190905_113110;0.103;9.414;-2.847;0.017;0.006;-0.001;
20190905_113110;0.172;9.450;-2.887;-0.000;0.005;-0.002;
20190905_113111;0.096;9.278;-2.734;0.001;0.007;0.002;
20190905_113111;0.122;9.474;-2.840;0.006;0.007;0.003;
20190905_113111;0.230;9.591;-2.861;-0.002;0.006;0.001;
20190905_113111;0.314;9.249;-2.653;-0.004;0.006;0.002;
20190905_113111;0.122;9.464;-2.818;0.008;0.006;0.001;
20190905_113111;0.347;9.323;-2.784;-0.016;0.003;0.001;
20190905_113111;0.373;9.404;-2.686;0.011;0.006;0.005;
20190905_113111;0.134;9.562;-2.907;-0.000;0.007;0.002;
20190905_113111;0.213;9.428;-2.689;-0.010;0.005;0.001;
20190905_113111;0.251;9.637;-2.844;0.011;0.005;0.002;
20190905_113112;0.333;9.290;-2.672;-0.019;0.002;-0.001;
20190905_113112;0.476;9.543;-2.746;0.009;0.005;0.001;
20190905_113112;0.321;9.531;-2.837;-0.009;0.001;-0.002;
20190905_113112;0.144;9.340;-2.614;-0.003;0.005;-0.004;
20190905_113112;0.168;9.531;-2.806;0.003;0.005;-0.003;
20190905_113112;0.388;9.345;-2.650;-0.008;0.002;-0.002;
20190905_113112;0.218;9.345;-2.658;-0.000;0.005;0.001;
20190905_113112;0.187;9.483;-2.708;0.001;0.004;0.000;
20190905_113112;0.055;9.340;-2.667;-0.006;0.005;-0.002;
20190905_113113;-0.101;9.366;-2.643;0.006;0.005;-0.002;
20190905_113113;0.208;9.491;-2.861;0.004;0.003;-0.001;
20190905_113113;0.014;9.084;-2.660;-0.004;0.003;-0.001;
20190905_113113;0.108;9.653;-3.033;0.031;0.008;0.004;
20190905_113113;0.227;9.304;-2.756;-0.020;-0.000;-0.002;
20190905_113113;0.302;9.275;-2.433;-0.004;0.001;0.000;
20190905_113113;0.184;9.467;-3.077;0.018;-0.000;-0.004;
20190905_113113;0.115;8.873;-2.392;-0.053;-0.002;-0.003;
20190905_113113;0.055;9.591;-2.962;0.062;0.005;0.003;
20190905_113113;0.251;9.146;-2.682;-0.045;-0.003;-0.002;
20190905_113114;0.347;9.390;-2.686;0.024;0.001;0.001;
20190905_113114;0.321;9.548;-3.036;-0.011;-0.001;0.000;
20190905_113114;0.227;9.254;-2.588;-0.014;-0.000;0.001;
20190905_113114;0.419;9.735;-2.923;0.024;-0.001;0.003;
20190905_113114;0.235;9.613;-2.715;-0.019;-0.005;-0.001;
20190905_113114;0.211;9.495;-2.741;0.006;-0.001;-0.003;
20190905_113114;0.292;9.522;-2.756;-0.008;-0.003;-0.002;
20190905_113114;0.314;9.321;-2.763;-0.003;-0.005;0.000;
20190905_113114;0.144;9.414;-2.614;-0.004;-0.002;0.000;
20190905_113115;0.081;9.234;-2.722;0.002;0.001;0.001;
20190905_113115;0.117;9.354;-2.717;0.001;0.001;0.002;
20190905_113115;0.024;9.340;-2.725;0.006;0.002;0.002;
20190905_113115;0.079;9.378;-2.837;0.005;0.003;0.004;
20190905_113115;0.148;9.436;-2.835;0.004;0.003;0.006;
20190905_113115;0.139;9.677;-2.856;0.007;0.004;0.007;
20190905_113115;0.338;9.244;-2.806;-0.005;-0.001;0.005;
20190905_113115;0.215;9.651;-2.856;0.008;-0.000;0.004;
20190905_113115;0.115;9.503;-2.844;-0.010;-0.002;0.002;
20190905_113115;0.120;9.335;-2.545;-0.016;-0.001;0.001;
20190905_113116;0.467;9.345;-2.847;0.016;-0.001;0.004;
20190905_113116;0.340;9.299;-2.610;-0.020;-0.002;0.000;
20190905_113116;0.431;9.342;-2.775;0.017;-0.000;0.000;
20190905_113116;0.378;9.476;-2.751;-0.013;-0.005;0.000;
20190905_113116;0.342;9.337;-2.641;-0.002;-0.003;0.002;
20190905_113116;0.045;9.529;-2.741;0.003;0.001;0.001;
20190905_113116;0.290;9.462;-2.667;-0.005;-0.003;0.002;
20190905_113116;0.215;9.424;-2.765;0.007;-0.000;0.001;
20190905_113116;0.192;9.321;-2.763;-0.000;-0.005;-0.001;
20190905_113117;0.163;9.292;-2.765;0.007;-0.001;0.000;
20190905_113117;0.163;9.294;-2.708;0.001;0.001;0.003;
20190905_113117;0.120;9.522;-2.796;0.007;-0.002;0.001;
20190905_113117;0.290;9.515;-2.727;-0.003;-0.002;0.002;
20190905_113117;0.206;9.665;-2.775;0.006;-0.001;0.002;
20190905_113117;0.304;9.476;-2.729;-0.010;-0.003;0.002;
20190905_113117;0.223;9.287;-2.739;0.003;-0.001;0.005;
20190905_113117;0.242;9.390;-2.746;-0.004;-0.001;0.003;
20190905_113117;0.249;9.249;-2.741;-0.004;-0.002;0.001;
20190905_113118;0.263;9.357;-2.708;0.006;-0.001;-0.001;
20190905_113118;0.306;9.366;-2.784;0.003;-0.002;-0.001;
20190905_113118;0.194;9.371;-2.768;0.006;-0.001;-0.002;
20190905_113118;0.326;9.357;-2.808;0.003;-0.002;-0.004;
20190905_113118;0.333;9.522;-2.844;0.005;-0.002;-0.004;
20190905_113118;0.136;9.407;-2.801;-0.001;-0.001;-0.004;
20190905_113118;-0.034;9.519;-2.794;0.011;-0.000;-0.002;
20190905_113118;0.350;9.419;-2.792;-0.002;-0.002;0.001;
20190905_113118;0.081;9.464;-2.653;-0.001;-0.000;0.004;
20190905_113118;0.141;9.388;-2.801;0.006;-0.000;0.004;
20190905_113119;-0.065;9.294;-2.708;-0.006;0.001;0.002;
20190905_113119;-0.043;9.349;-2.772;0.002;0.001;0.003;
20190905_113119;0.175;9.349;-2.823;-0.000;-0.002;0.005;
20190905_113119;0.400;9.361;-2.586;-0.008;-0.003;0.006;
20190905_113119;0.244;9.728;-2.885;0.015;-0.002;0.005;
20190905_113119;0.182;9.364;-2.641;-0.018;-0.005;0.001;
20190905_113119;0.290;9.594;-2.703;0.013;-0.002;0.002;
20190905_113119;0.347;9.450;-2.832;-0.001;-0.005;0.003;
20190905_113119;0.180;9.318;-2.655;0.001;-0.001;0.005;
20190905_113119;0.278;9.527;-2.751;0.007;-0.000;0.004;
20190905_113120;0.297;9.474;-2.717;-0.008;-0.005;0.001;
20190905_113120;0.335;9.397;-2.780;0.007;-0.006;0.000;
20190905_113120;0.263;9.301;-2.658;-0.011;-0.005;0.001;
20190905_113120;0.529;9.507;-2.741;0.001;-0.007;0.000;
20190905_113120;0.460;9.364;-2.626;-0.004;-0.006;0.000;
20190905_113120;0.335;9.598;-2.873;0.009;-0.002;0.000;
20190905_113120;0.144;9.390;-2.828;-0.000;-0.000;-0.001;
20190905_113120;0.314;9.495;-2.777;0.004;-0.000;0.002;
20190905_113120;0.261;9.445;-2.930;-0.000;-0.001;0.002;
20190905_113121;0.043;9.522;-2.720;-0.001;0.001;0.004;
20190905_113121;0.129;9.378;-2.909;0.012;0.003;0.003;
20190905_113121;0.141;9.165;-2.622;-0.008;-0.002;0.000;
20190905_113121;0.156;9.438;-2.830;0.020;0.001;0.003;
20190905_113121;0.065;9.275;-2.660;-0.019;-0.000;0.002;
20190905_113121;0.122;9.471;-2.804;0.023;0.001;0.004;
20190905_113121;0.122;9.414;-2.761;-0.005;-0.000;0.001;
20190905_113121;0.034;9.448;-2.770;0.005;0.002;0.003;
20190905_113121;0.201;9.574;-2.928;0.002;-0.002;0.002;
20190905_113122;0.177;9.290;-2.739;-0.003;-0.000;0.004;
20190905_113122;0.086;9.469;-2.926;0.011;0.002;0.003;
20190905_113122;0.194;9.395;-2.720;-0.013;0.001;0.002;
20190905_113122;0.247;9.371;-2.887;0.013;0.002;0.003;
20190905_113122;0.208;9.385;-2.734;-0.004;0.002;0.000;
20190905_113122;0.105;9.258;-2.811;0.006;0.002;0.004;
20190905_113122;0.156;9.440;-2.729;-0.003;0.002;0.003;
20190905_113122;0.275;9.443;-2.789;0.003;0.001;0.002;
20190905_113122;0.158;9.371;-2.840;-0.004;-0.000;0.001;
20190905_113122;0.089;9.385;-2.741;-0.005;0.001;0.000;
20190905_113123;0.220;9.668;-2.868;0.005;0.001;0.003;
20190905_113123;0.211;9.194;-2.593;-0.018;-0.001;0.003;
20190905_113123;0.259;9.448;-2.897;0.016;0.003;0.006;
20190905_113123;0.117;9.383;-2.684;-0.024;-0.002;-0.001;
20190905_113123;0.084;9.433;-2.662;0.011;0.004;0.004;
20190905_113123;0.144;9.333;-2.808;-0.009;0.001;0.003;
20190905_113123;0.476;9.297;-2.665;0.002;-0.000;0.006;
20190905_113123;0.299;9.584;-2.811;0.003;-0.000;0.003;
20190905_113123;0.292;9.649;-2.641;-0.006;0.001;0.003;
20190905_113124;0.024;9.486;-2.703;-0.005;0.003;0.000;
20190905_113124;0.254;9.361;-2.619;-0.009;-0.002;0.000;
20190905_113124;0.445;9.280;-2.830;0.013;0.001;0.002;
20190905_113124;0.275;9.337;-2.624;-0.005;-0.003;0.000;
20190905_113124;0.352;9.467;-2.873;0.018;0.002;-0.002;
20190905_113124;0.314;9.565;-2.689;-0.012;-0.001;-0.006;
20190905_113124;0.292;9.507;-2.737;0.007;0.001;-0.006;
20190905_113124;0.496;9.685;-2.832;0.003;0.001;-0.005;
20190905_113124;0.431;9.256;-2.562;-0.014;-0.001;-0.005;
20190905_113125;0.283;9.527;-2.811;0.013;0.002;-0.003;
20190905_113125;0.113;9.005;-2.562;-0.019;-0.000;-0.006;
20190905_113125;-0.108;9.273;-2.677;0.019;0.009;0.000;
20190905_113125;-0.065;9.239;-2.861;-0.010;0.005;0.001;
20190905_113125;0.211;9.510;-2.732;0.011;0.008;0.005;
20190905_113125;0.280;9.780;-3.012;0.006;0.009;0.003;
20190905_113125;0.194;9.457;-2.571;-0.012;0.011;0.002;
20190905_113125;0.043;9.766;-2.916;0.025;0.015;0.004;
20190905_113125;0.266;9.459;-2.593;-0.029;0.010;-0.002;
20190905_113125;0.330;9.440;-2.679;0.016;0.013;0.001;
20190905_113126;0.326;9.536;-2.787;-0.010;0.011;-0.008;
20190905_113126;0.271;9.191;-2.655;-0.005;0.014;-0.008;
20190905_113126;0.283;9.335;-2.749;0.012;0.018;-0.006;
20190905_113126;0.062;9.309;-2.703;-0.008;0.018;-0.008;
20190905_113126;0.342;9.266;-2.593;0.001;0.018;-0.005;
20190905_113126;0.316;9.749;-2.830;0.013;0.019;-0.005;
20190905_113126;0.117;9.436;-2.591;-0.013;0.017;-0.010;
20190905_113126;0.194;9.780;-2.801;0.012;0.021;-0.003;
20190905_113126;0.041;9.316;-2.684;-0.010;0.017;-0.006;
20190905_113127;-0.053;9.452;-2.583;0.002;0.023;-0.004;
20190905_113127;-0.017;9.713;-3.000;0.007;0.022;-0.007;
20190905_113127;0.144;9.081;-2.612;-0.018;0.017;-0.012;
20190905_113127;-0.170;9.318;-2.820;0.009;0.029;-0.006;
20190905_113127;0.352;9.263;-2.811;-0.010;0.023;-0.004;
20190905_113127;0.101;9.127;-2.605;-0.010;0.023;-0.007;
20190905_113127;0.208;9.491;-2.780;0.014;0.025;-0.005;
20190905_113127;0.146;9.390;-2.658;-0.020;0.022;-0.011;
20190905_113127;0.153;9.474;-2.643;0.004;0.023;-0.005;
20190905_113128;0.081;9.665;-3.031;0.001;0.026;-0.005;
20190905_113128;-0.072;9.239;-2.547;-0.018;0.027;-0.005;
20190905_113128;0.134;9.730;-2.993;0.024;0.029;-0.006;
20190905_113128;0.254;9.462;-2.782;-0.021;0.024;-0.006;
20190905_113128;-0.412;9.491;-2.638;0.012;0.033;-0.003;
20190905_113128;-0.388;9.773;-2.964;0.009;0.034;0.000;
20190905_113128;0.012;9.096;-2.523;-0.021;0.030;-0.002;
20190905_113128;-0.055;9.819;-2.782;0.032;0.034;-0.001;
20190905_113128;-0.057;9.100;-2.768;-0.019;0.031;-0.008;
20190905_113129;-0.225;9.182;-2.624;0.018;0.032;-0.002;
20190905_113129;0.026;9.524;-3.031;0.017;0.032;-0.003;
20190905_113129;0.113;9.189;-2.579;-0.020;0.031;-0.004;
20190905_113129;-0.108;9.917;-2.734;0.028;0.035;-0.006;
20190905_113129;0.139;9.369;-2.634;-0.024;0.026;-0.011;
20190905_113129;0.072;9.567;-2.421;-0.006;0.030;-0.006;
20190905_113129;0.072;9.524;-2.840;0.018;0.027;-0.005;
20190905_113129;-0.060;9.120;-2.442;-0.025;0.026;-0.008;
20190905_113129;0.093;9.627;-2.653;0.031;0.027;-0.004;
20190905_113129;-0.077;9.445;-2.619;-0.016;0.025;-0.010;
20190905_113130;0.163;9.328;-2.404;-0.002;0.026;-0.002;
20190905_113130;-0.127;9.771;-2.765;0.025;0.029;0.003;
20190905_113130;-0.158;9.005;-2.394;-0.027;0.026;-0.003;
20190905_113130;-0.124;9.546;-2.622;0.029;0.033;0.000;
20190905_113130;-0.077;9.481;-2.710;-0.008;0.029;-0.003;
20190905_113130;-0.026;9.421;-2.425;-0.016;0.030;-0.001;
20190905_113130;-0.105;9.816;-2.753;0.021;0.034;0.004;
20190905_113130;-0.084;9.201;-2.447;-0.029;0.029;-0.003;
20190905_113130;0.005;9.646;-2.519;0.017;0.032;-0.001;
20190905_113131;0.045;9.426;-2.665;-0.017;0.029;-0.004;
20190905_113131;-0.108;9.131;-2.251;-0.021;0.030;-0.001;
20190905_113131;-0.132;9.620;-2.804;0.047;0.035;0.002;
20190905_113131;-0.067;9.067;-2.401;-0.035;0.029;-0.004;
20190905_113131;0.249;9.596;-2.502;0.022;0.033;-0.002;
20190905_113131;0.524;9.910;-2.861;0.015;0.027;-0.002;
20190905_113131;0.254;9.333;-2.308;-0.031;0.034;-0.002;
20190905_113131;-0.079;9.766;-2.629;0.035;0.037;0.004;
20190905_113131;0.045;9.100;-2.444;-0.037;0.031;-0.002;
20190905_113131;0.170;9.402;-2.394;0.008;0.032;0.000;
20190905_113132;0.189;9.594;-2.734;0.024;0.031;-0.001;
20190905_113132;-0.014;9.203;-2.258;-0.033;0.029;-0.003;
20190905_113132;-0.031;9.620;-2.521;0.032;0.035;0.005;
20190905_113132;0.084;9.577;-2.698;-0.019;0.030;0.000;
20190905_113132;0.117;9.390;-2.301;0.002;0.030;-0.002;
20190905_113132;0.089;9.687;-2.746;0.021;0.031;-0.005;
20190905_113132;0.223;9.299;-2.375;-0.027;0.027;-0.006;
20190905_113132;0.292;9.582;-2.646;0.032;0.033;0.000;
20190905_113132;0.098;9.452;-2.550;-0.015;0.030;-0.005;
20190905_113133;-0.108;9.371;-2.449;0.012;0.031;-0.006;
20190905_113133;0.271;9.376;-2.595;0.004;0.030;-0.007;
20190905_113133;0.287;9.318;-2.502;-0.003;0.027;-0.006;
20190905_113133;0.294;9.747;-2.598;0.014;0.034;-0.003;
20190905_113133;0.103;9.491;-2.495;-0.013;0.031;-0.006;
20190905_113133;0.177;9.452;-2.509;0.013;0.029;-0.006;
20190905_113133;0.117;9.483;-2.564;-0.004;0.030;-0.006;
20190905_113133;0.180;9.412;-2.557;0.005;0.031;-0.006;
20190905_113133;0.352;9.574;-2.538;0.006;0.031;-0.001;
20190905_113134;0.278;9.553;-2.569;0.002;0.031;-0.003;
20190905_113134;0.244;9.610;-2.710;0.005;0.029;-0.007;
20190905_113134;0.163;9.469;-2.490;-0.003;0.030;-0.010;
20190905_113134;0.187;9.328;-2.725;0.015;0.032;-0.004;
20190905_113134;0.146;9.376;-2.617;-0.001;0.032;-0.003;
20190905_113134;0.283;9.476;-2.650;0.008;0.032;-0.002;
20190905_113134;0.223;9.455;-2.658;-0.005;0.031;-0.004;
20190905_113134;0.093;9.665;-2.655;0.006;0.032;-0.008;
20190905_113134;0.122;9.615;-2.569;-0.009;0.030;-0.010;
20190905_113134;-0.017;9.689;-2.729;0.008;0.033;-0.006;
20190905_113135;0.160;9.481;-2.550;-0.013;0.027;-0.007;
20190905_113135;0.148;9.419;-2.658;0.005;0.031;-0.006;
20190905_113135;-0.089;9.562;-2.574;-0.004;0.032;-0.007;
20190905_113135;-0.041;9.711;-2.569;-0.001;0.032;-0.007;
20190905_113135;0.223;9.340;-2.533;-0.012;0.029;-0.010;
20190905_113135;0.409;9.495;-2.667;0.009;0.030;-0.006;
20190905_113135;0.232;9.201;-2.670;-0.011;0.029;-0.011;
20190905_113135;0.124;9.246;-2.571;0.007;0.033;-0.010;
20190905_113135;0.364;9.345;-2.674;0.005;0.030;-0.005;
20190905_113136;0.259;9.361;-2.591;-0.006;0.029;-0.005;
20190905_113136;-0.014;9.550;-2.777;0.015;0.033;-0.005;
20190905_113136;0.079;9.653;-2.622;-0.005;0.031;-0.004;
20190905_113136;0.237;9.313;-2.643;0.005;0.030;-0.003;
20190905_113136;-0.041;9.560;-2.686;0.002;0.032;-0.002;
20190905_113136;-0.113;9.313;-2.646;-0.004;0.034;-0.002;
20190905_113136;0.251;9.390;-2.523;-0.004;0.030;-0.004;
20190905_113136;0.194;9.680;-2.737;0.009;0.032;-0.004;
20190905_113136;0.151;9.400;-2.550;-0.014;0.029;-0.008;
20190905_113136;0.156;9.553;-2.713;0.013;0.030;-0.011;
20190905_113137;0.419;9.167;-2.667;-0.017;0.027;-0.011;
20190905_113137;0.148;9.280;-2.674;0.008;0.030;-0.008;
20190905_113137;0.232;9.474;-2.820;0.002;0.029;-0.008;
20190905_113137;0.139;9.419;-2.725;-0.003;0.030;-0.010;
20190905_113137;0.201;9.651;-2.799;0.005;0.031;-0.005;
20190905_113137;0.036;9.495;-2.737;-0.005;0.031;-0.006;
20190905_113137;-0.105;9.244;-2.650;-0.001;0.031;-0.006;
20190905_113137;-0.053;9.311;-2.765;0.005;0.029;-0.006;
20190905_113137;0.407;9.203;-2.729;-0.010;0.024;-0.006;
20190905_113138;0.012;9.464;-2.811;0.014;0.027;-0.005;
20190905_113138;0.067;9.392;-2.832;-0.002;0.027;-0.006;
20190905_113138;-0.017;9.433;-2.710;0.006;0.030;-0.002;
20190905_113138;0.175;9.369;-2.792;0.005;0.025;0.000;
20190905_113138;0.330;9.457;-2.672;0.002;0.022;0.000;
20190905_113138;-0.050;9.639;-2.789;0.005;0.022;0.000;
20190905_113138;-0.168;9.404;-2.636;-0.011;0.021;-0.002;
20190905_113138;0.041;9.359;-2.720;0.004;0.021;-0.001;
20190905_113138;0.376;9.227;-2.758;-0.012;0.014;-0.003;
20190905_113139;0.141;9.031;-2.696;0.001;0.014;-0.007;
20190905_113139;0.172;9.507;-2.837;0.008;0.016;-0.005;
20190905_113139;0.256;9.230;-2.655;-0.009;0.013;-0.010;
20190905_113139;0.388;9.531;-2.763;0.011;0.014;-0.010;
20190905_113139;0.503;9.263;-2.873;0.002;0.011;-0.008;
20190905_113139;0.359;9.412;-2.646;-0.008;0.009;-0.004;
20190905_113139;0.007;9.821;-2.988;0.020;0.016;-0.003;
20190905_113139;0.244;9.445;-2.646;-0.025;0.015;-0.002;
20190905_113139;0.136;9.646;-2.887;0.023;0.017;-0.001;
20190905_113139;0.345;9.280;-2.784;-0.027;0.008;-0.002;
20190905_113140;0.022;9.246;-2.777;0.015;0.016;0.000;
20190905_113140;0.048;9.340;-2.816;-0.002;0.014;-0.002;
20190905_113140;0.244;9.340;-2.650;0.002;0.015;-0.002;
20190905_113140;0.393;9.424;-2.799;0.007;0.011;-0.002;
20190905_113140;0.395;9.462;-2.794;0.003;0.013;-0.005;
20190905_113140;0.273;9.467;-2.875;0.009;0.016;-0.004;
20190905_113140;0.160;9.349;-2.725;-0.012;0.011;-0.006;
20190905_113140;0.244;9.512;-2.959;0.017;0.014;-0.005;
20190905_113140;0.294;9.586;-2.749;-0.013;0.014;-0.003;
20190905_113141;0.132;9.445;-2.854;0.007;0.016;-0.005;
20190905_113141;0.311;9.503;-2.780;-0.003;0.013;-0.003;
20190905_113141;0.280;9.290;-2.741;0.001;0.016;-0.003;
20190905_113141;0.105;9.486;-2.686;0.001;0.015;-0.002;
20190905_113141;0.381;9.459;-2.801;-0.001;0.011;-0.002;
20190905_113141;0.254;9.354;-2.717;-0.005;0.011;-0.004;
20190905_113141;-0.022;9.493;-2.775;0.011;0.014;-0.003;
20190905_113141;0.060;9.524;-2.722;-0.001;0.014;-0.002;
20190905_113141;0.237;9.275;-2.638;-0.002;0.015;0.000;
20190905_113142;0.417;9.165;-2.840;0.005;0.009;-0.004;
20190905_113142;0.247;9.151;-2.751;-0.003;0.013;-0.001;
20190905_113142;0.249;9.428;-2.854;0.009;0.013;-0.005;
20190905_113142;0.436;9.505;-2.871;-0.000;0.011;-0.004;
20190905_113142;-0.019;9.400;-2.619;-0.004;0.015;-0.002;
20190905_113142;0.050;9.728;-2.832;0.015;0.015;-0.001;
20190905_113142;0.649;9.378;-2.698;-0.016;0.006;-0.003;
20190905_113142;0.565;9.438;-2.715;0.004;0.008;-0.002;
20190905_113142;0.041;9.677;-2.935;0.007;0.010;-0.003;
20190905_113142;-0.031;9.098;-2.636;-0.017;0.013;-0.004;
20190905_113143;0.189;9.503;-2.897;0.017;0.011;-0.001;
20190905_113143;0.153;9.306;-2.796;-0.018;0.010;-0.003;
20190905_113143;0.230;9.215;-2.715;0.012;0.011;-0.002;
20190905_113143;0.089;9.237;-2.935;0.009;0.011;-0.003;
20190905_113143;0.093;9.215;-2.818;-0.002;0.014;-0.002;
20190905_113143;0.290;9.352;-2.732;0.003;0.010;-0.002;
20190905_113143;0.347;9.613;-2.789;0.003;0.011;-0.003;
20190905_113143;0.366;9.505;-2.823;-0.000;0.009;-0.002;
20190905_113143;0.263;9.505;-2.689;-0.005;0.008;-0.004;
20190905_113144;0.172;9.510;-2.907;0.007;0.014;-0.003;
20190905_113144;-0.077;9.517;-2.770;-0.011;0.013;-0.002;
20190905_113144;0.196;9.653;-2.749;0.007;0.013;0.000;
20190905_113144;0.177;9.352;-2.863;-0.004;0.011;-0.001;
20190905_113144;0.134;9.230;-2.756;0.001;0.013;-0.003;
20190905_113144;0.069;9.493;-2.974;0.006;0.014;-0.005;
20190905_113144;0.251;8.921;-2.698;-0.008;0.011;-0.004;
20190905_113144;0.189;9.321;-2.830;0.011;0.015;0.000;
20190905_113144;0.448;9.316;-2.796;-0.008;0.011;-0.002;
20190905_113144;0.309;9.421;-2.629;0.008;0.014;-0.003;
20190905_113145;0.285;9.653;-2.993;0.008;0.013;-0.005;
20190905_113145;0.148;9.390;-2.686;-0.011;0.010;-0.006;
20190905_113145;0.251;9.618;-2.952;0.015;0.011;-0.004;
20190905_113145;0.400;9.342;-2.689;-0.019;0.010;-0.004;
20190905_113145;0.385;9.505;-2.751;0.011;0.011;-0.003;
20190905_113145;0.213;9.409;-2.758;-0.015;0.010;-0.003;
20190905_113145;-0.268;9.163;-2.660;0.001;0.017;-0.004;
20190905_113145;-0.211;9.582;-2.880;0.012;0.014;0.000;
20190905_113145;0.007;9.419;-2.789;-0.012;0.014;0.000;
20190905_113146;-0.086;9.622;-2.780;0.011;0.016;0.001;
20190905_113146;-0.029;9.804;-2.868;0.004;0.013;-0.003;
20190905_113146;0.192;9.196;-2.619;-0.017;0.014;-0.002;
20190905_113146;-0.029;9.632;-2.756;0.015;0.016;-0.001;
20190905_113146;0.153;9.215;-2.770;-0.014;0.009;-0.006;
20190905_113146;0.247;9.263;-2.607;0.006;0.011;-0.003;
20190905_113146;0.067;9.495;-2.986;0.013;0.010;-0.007;
20190905_113146;0.314;9.110;-2.622;-0.018;0.007;-0.008;
20190905_113146;0.187;9.424;-2.789;0.020;0.009;-0.001;
20190905_113146;0.129;9.546;-2.861;-0.013;0.007;-0.002;
20190905_113147;0.230;9.503;-2.619;-0.003;0.008;0.001;
20190905_113147;0.156;9.771;-2.988;0.009;0.007;0.002;
20190905_113147;0.275;9.527;-2.583;-0.028;0.003;-0.002;
20190905_113147;0.045;9.275;-2.804;0.023;0.004;0.001;
20190905_113147;0.175;9.661;-2.641;-0.019;0.002;0.002;
20190905_113147;0.373;9.273;-2.698;0.013;0.001;0.003;
20190905_113147;0.208;9.380;-2.729;-0.003;0.003;0.003;
20190905_113147;-0.160;9.562;-2.873;0.017;0.004;0.002;
20190905_113147;0.086;9.270;-2.849;-0.013;-0.002;0.001;
20190905_113148;0.132;9.373;-2.907;0.017;0.005;0.006;
20190905_113148;0.022;9.385;-2.919;-0.002;0.002;0.006;
20190905_113148;-0.019;9.340;-2.674;-0.008;0.006;0.009;
20190905_113148;-0.043;9.697;-2.890;0.005;0.004;0.006;
20190905_113148;0.151;9.084;-2.753;-0.020;-0.002;0.000;
20190905_113148;0.496;9.182;-2.753;0.011;0.004;0.005;
20190905_113148;0.093;9.131;-2.935;-0.000;0.004;0.004;
20190905_113148;0.283;9.237;-2.739;-0.000;0.004;0.005;
20190905_113148;0.381;9.639;-2.911;0.015;0.001;0.003;
20190905_113148;0.369;9.479;-2.535;-0.028;-0.003;-0.003;
20190905_113149;0.285;9.354;-2.682;0.012;-0.001;-0.003;
20190905_113149;0.268;9.486;-2.772;-0.019;-0.003;0.000;
20190905_113149;0.113;9.357;-2.763;0.005;-0.001;-0.003;
20190905_113149;0.474;9.474;-2.871;0.014;-0.001;-0.002;
20190905_113149;0.352;9.419;-2.581;-0.010;0.001;-0.004;
20190905_113149;0.338;9.689;-2.804;0.014;-0.001;-0.001;
20190905_113149;0.338;9.369;-2.619;-0.024;-0.006;-0.002;
20190905_113149;0.254;9.323;-2.883;0.020;-0.000;-0.001;
20190905_113149;0.433;9.541;-2.813;-0.017;-0.005;-0.002;
20190905_113150;0.330;9.546;-2.847;0.016;0.001;-0.002;
20190905_113150;0.165;9.345;-2.701;-0.019;-0.002;-0.005;
20190905_113150;0.484;9.340;-2.732;0.009;-0.001;0.000;
20190905_113150;0.388;9.448;-2.691;-0.012;-0.003;-0.002;
20190905_113150;0.292;9.280;-2.667;0.007;-0.000;-0.001;
20190905_113150;0.060;9.479;-2.895;-0.000;0.001;-0.004;
20190905_113150;0.395;9.270;-2.768;0.004;0.001;-0.003;
20190905_113150;0.565;9.483;-2.914;0.001;0.001;0.000;
20190905_113150;0.101;9.507;-2.873;-0.004;0.002;0.000;
20190905_113151;0.263;9.574;-2.763;0.002;0.004;0.001;
20190905_113151;0.263;9.455;-2.612;-0.015;0.002;0.000;
20190905_113151;0.273;9.639;-2.720;0.011;0.003;0.001;
20190905_113151;0.321;9.057;-2.557;-0.022;-0.002;-0.001;
20190905_113151;0.278;9.649;-2.847;0.022;0.002;0.001;
20190905_113151;0.144;9.002;-2.765;-0.012;0.004;-0.001;
20190905_113151;0.163;9.385;-2.796;0.023;0.005;-0.001;
20190905_113151;0.302;9.249;-2.923;-0.004;0.002;0.001;
20190905_113151;0.292;9.345;-2.703;0.001;0.004;0.004;
20190905_113152;0.184;9.859;-2.849;0.007;0.008;0.005;
20190905_113152;0.168;9.536;-2.643;-0.018;0.003;0.001;
20190905_113152;0.225;9.685;-2.708;0.012;0.003;0.000;
20190905_113152;0.412;9.232;-2.768;-0.012;-0.001;-0.003;
20190905_113152;0.357;9.165;-2.622;-0.001;0.001;0.001;
20190905_113152;0.055;9.419;-2.873;0.005;0.005;0.003;
20190905_113152;0.297;9.196;-2.658;-0.012;0.003;0.000;
20190905_113152;0.254;9.306;-2.940;0.017;0.001;-0.002;
20190905_113152;0.421;9.306;-2.715;-0.017;-0.001;-0.003;
20190905_113152;0.328;9.565;-2.801;0.009;-0.000;0.002;
20190905_113153;0.357;9.608;-2.799;-0.014;0.003;0.000;
20190905_113153;0.316;9.440;-2.653;-0.002;0.001;-0.001;
20190905_113153;0.299;9.493;-2.880;0.006;-0.000;-0.004;
20190905_113153;0.426;9.316;-2.569;-0.017;-0.000;-0.001;
20190905_113153;0.057;9.527;-2.875;0.013;0.005;0.003;
20190905_113153;0.101;9.378;-2.772;-0.018;0.002;0.001;
20190905_113153;0.220;9.457;-2.660;-0.000;0.002;0.000;
20190905_113153;0.405;9.486;-2.828;0.005;-0.000;-0.001;
20190905_113153;0.268;9.309;-2.638;-0.009;-0.001;0.000;
20190905_113154;-0.012;9.491;-2.835;0.003;0.003;0.004;
20190905_113154;0.077;9.424;-2.789;-0.005;0.003;0.002;
20190905_113154;0.192;9.210;-2.787;-0.002;0.004;0.002;
20190905_113154;0.268;9.210;-2.727;-0.001;0.003;0.000;
20190905_113154;0.297;9.335;-2.926;0.003;0.003;0.000;
20190905_113154;0.285;9.546;-2.713;-0.002;0.005;0.005;
20190905_113154;0.273;9.500;-3.053;0.014;0.005;0.002;
20190905_113154;0.366;9.464;-2.598;-0.018;0.001;0.000;
20190905_113154;0.196;9.711;-3.031;0.034;0.005;0.003;
20190905_113155;-0.022;9.503;-2.816;-0.030;0.004;0.003;
20190905_113155;0.239;9.548;-2.835;0.021;0.006;0.006;
20190905_113155;0.359;9.519;-2.897;-0.003;0.005;0.005;
20190905_113155;0.259;9.383;-2.581;-0.002;0.005;0.002;
20190905_113155;0.323;9.725;-3.000;0.011;0.004;0.000;
20190905_113155;0.323;9.361;-2.540;-0.017;-0.002;-0.003;
20190905_113155;0.409;9.720;-2.959;0.025;0.003;0.002;
20190905_113155;0.148;9.325;-2.705;-0.016;0.001;-0.001;
20190905_113155;0.287;9.311;-2.875;0.024;0.004;-0.001;
20190905_113155;0.223;9.404;-2.828;-0.011;0.002;-0.003;
20190905_113156;0.350;9.596;-2.686;0.012;0.002;0.002;
20190905_113156;0.127;9.443;-2.854;-0.000;0.004;0.004;
20190905_113156;0.333;9.335;-2.583;-0.005;0.001;0.004;
20190905_113156;0.223;9.488;-2.885;0.012;0.001;0.002;
20190905_113156;0.055;9.167;-2.605;-0.022;0.001;0.000;
20190905_113156;0.024;9.237;-2.753;0.016;0.004;0.004;
20190905_113156;0.227;9.290;-2.859;-0.006;-0.000;0.004;
20190905_113156;0.187;9.459;-2.811;-0.000;0.001;0.003;
20190905_113156;0.371;9.651;-2.964;0.007;0.004;0.000;
20190905_113157;0.354;9.567;-2.737;-0.009;-0.001;0.000;
20190905_113157;0.393;9.663;-2.863;0.004;0.001;0.004;
20190905_113157;0.285;9.409;-2.650;-0.024;-0.003;0.002;
20190905_113157;0.409;9.206;-2.744;0.007;-0.001;0.004;
20190905_113157;0.271;9.093;-2.686;-0.010;-0.002;0.000;
20190905_113157;0.101;9.352;-2.789;0.009;0.003;0.002;
20190905_113157;0.115;9.182;-2.816;-0.004;0.001;0.003;
20190905_113157;0.476;9.495;-2.672;-0.002;-0.002;0.003;
20190905_113157;0.522;9.479;-2.959;0.007;-0.000;0.001;
20190905_113157;0.249;9.268;-2.555;-0.016;-0.002;-0.001;
20190905_113158;0.402;9.476;-2.995;0.027;-0.002;-0.001;
20190905_113158;0.338;9.412;-2.701;-0.025;-0.006;-0.001;
20190905_113158;0.306;9.467;-2.902;0.027;0.003;0.004;
20190905_113158;0.079;9.471;-2.806;-0.013;-0.001;0.000;
20190905_113158;0.213;9.464;-2.777;0.003;0.001;0.001;
20190905_113158;0.292;9.364;-2.696;-0.010;-0.001;0.002;
20190905_113158;0.249;9.538;-2.789;0.013;-0.000;0.003;
20190905_113158;0.160;9.474;-2.734;-0.010;-0.001;0.000;
20190905_113158;0.271;9.572;-2.698;0.004;-0.000;-0.001;
20190905_113159;0.333;9.445;-2.614;-0.010;-0.005;-0.004;
20190905_113159;0.034;9.361;-2.456;0.001;-0.003;-0.001;
20190905_113159;-0.007;9.378;-2.662;-0.003;-0.005;0.000;
20190905_113159;0.426;9.428;-2.452;-0.010;-0.007;0.003;
20190905_113159;0.204;9.618;-2.638;0.015;-0.003;0.006;
20190905_113159;0.103;9.646;-2.392;-0.012;-0.008;0.004;
20190905_113159;-0.019;9.586;-2.428;-0.000;-0.007;0.006;
20190905_113159;0.122;9.560;-2.535;-0.002;-0.011;0.010;
20190905_113159;0.148;9.359;-2.421;0.005;-0.010;0.007;
20190905_113200;0.101;9.572;-2.476;0.003;-0.009;0.004;
20190905_113200;0.405;9.369;-2.406;-0.002;-0.014;0.000;
20190905_113200;0.532;9.646;-2.430;0.009;-0.012;0.001;
20190905_113200;0.110;9.524;-2.356;-0.006;-0.011;0.002;
20190905_113200;0.354;9.498;-2.380;0.005;-0.015;0.001;
20190905_113200;0.769;9.443;-2.444;-0.002;-0.019;-0.001;
20190905_113200;0.474;9.345;-2.363;-0.003;-0.016;0.000;
20190905_113200;0.036;9.632;-2.519;0.007;-0.009;0.002;
20190905_113200;0.335;9.493;-2.392;-0.012;-0.012;0.003;
20190905_113200;0.788;9.675;-2.490;0.007;-0.016;0.005;
20190905_113201;0.654;9.371;-2.418;-0.015;-0.019;0.002;
20190905_113201;0.201;9.464;-2.399;0.006;-0.008;0.005;
20190905_113201;0.184;9.395;-2.421;-0.005;-0.010;0.006;
20190905_113201;0.464;9.486;-2.284;0.005;-0.013;0.007;
20190905_113201;0.359;9.651;-2.449;-0.004;-0.014;0.003;
20190905_113201;0.251;9.445;-2.411;-0.011;-0.013;0.000;
20190905_113201;0.235;9.665;-2.466;0.003;-0.012;0.002;
20190905_113201;0.395;9.531;-2.409;-0.010;-0.016;0.003;
20190905_113201;0.493;9.608;-2.354;-0.005;-0.016;0.004;
20190905_113202;0.555;9.450;-2.332;-0.009;-0.018;0.001;
20190905_113202;0.381;9.328;-2.270;-0.011;-0.021;0.000;
20190905_113202;0.292;9.416;-2.274;0.001;-0.019;0.000;
20190905_113202;0.534;9.500;-2.394;-0.004;-0.025;0.002;
20190905_113202;0.419;9.510;-2.315;-0.004;-0.025;0.004;
20190905_113202;0.383;9.622;-2.397;0.008;-0.025;0.003;
20190905_113202;0.433;9.522;-2.277;-0.011;-0.032;0.001;
20190905_113202;0.328;9.448;-2.279;0.005;-0.031;0.004;
20190905_113202;0.175;9.651;-2.392;-0.004;-0.032;0.005;
20190905_113203;0.321;9.498;-2.313;-0.008;-0.039;0.004;
20190905_113203;0.318;9.689;-2.444;0.005;-0.039;0.004;
20190905_113203;0.141;9.601;-2.380;-0.012;-0.040;0.002;
20190905_113203;0.776;9.369;-2.193;-0.008;-0.043;0.005;
20190905_113203;0.575;9.445;-2.416;-0.002;-0.043;0.006;
20190905_113203;0.335;9.345;-2.210;-0.013;-0.044;0.006;
20190905_113203;0.254;9.629;-2.370;0.008;-0.041;0.007;
20190905_113203;0.419;9.388;-2.416;-0.003;-0.044;0.007;
20190905_113203;0.283;9.131;-2.332;-0.002;-0.045;0.010;
20190905_113203;0.378;9.467;-2.500;0.014;-0.043;0.013;
20190905_113204;0.302;9.301;-2.385;-0.011;-0.046;0.014;
20190905_113204;0.328;9.687;-2.382;0.013;-0.046;0.013;
20190905_113204;0.373;9.689;-2.339;-0.011;-0.050;0.010;
20190905_113204;0.620;9.651;-2.387;0.005;-0.052;0.012;
20190905_113204;0.548;9.577;-2.442;-0.002;-0.055;0.010;
20190905_113204;0.469;9.249;-2.337;-0.004;-0.055;0.013;
20190905_113204;0.335;9.725;-2.468;0.011;-0.056;0.010;
20190905_113204;0.553;9.254;-2.454;-0.011;-0.060;0.006;
20190905_113204;0.400;9.414;-2.468;0.008;-0.057;0.010;
20190905_113205;0.658;9.728;-2.725;0.012;-0.064;0.012;
20190905_113205;0.510;9.313;-2.418;-0.022;-0.066;0.010;
20190905_113205;0.421;9.620;-2.895;0.029;-0.060;0.016;
20190905_113205;0.400;9.304;-2.684;-0.021;-0.070;0.011;
20190905_113205;0.407;9.452;-2.638;0.004;-0.064;0.015;
20190905_113205;0.424;9.373;-2.986;0.001;-0.066;0.016;
20190905_113205;0.469;9.230;-2.619;-0.011;-0.067;0.017;
20190905_113205;0.409;9.412;-2.998;0.031;-0.063;0.018;
20190905_113205;0.462;9.232;-2.792;-0.022;-0.070;0.015;
20190905_113205;0.512;9.412;-2.770;0.013;-0.067;0.018;
20190905_113206;0.594;9.586;-2.887;0.001;-0.070;0.021;
20190905_113206;0.599;9.361;-2.782;-0.001;-0.071;0.019;
20190905_113206;0.601;9.364;-2.813;-0.002;-0.070;0.019;
20190905_113206;0.417;9.505;-3.005;0.017;-0.065;0.023;
20190905_113206;0.517;9.189;-2.739;-0.017;-0.071;0.018;
20190905_113206;0.764;9.407;-2.749;0.011;-0.070;0.021;
20190905_113206;0.503;9.285;-2.883;-0.001;-0.070;0.019;
20190905_113206;0.737;9.524;-2.665;0.009;-0.071;0.021;
20190905_113206;0.733;9.632;-2.964;0.019;-0.070;0.020;
20190905_113206;0.804;9.232;-2.758;-0.012;-0.075;0.016;
20190905_113207;0.713;9.278;-2.942;0.023;-0.068;0.020;
20190905_113207;0.553;9.321;-2.976;-0.004;-0.072;0.019;
20190905_113207;0.735;9.462;-2.902;0.009;-0.072;0.019;
20190905_113207;0.443;9.742;-2.880;-0.001;-0.072;0.021;
20190905_113207;0.546;9.649;-2.885;-0.001;-0.072;0.020;
20190905_113207;0.713;9.443;-2.878;-0.003;-0.074;0.021;
20190905_113207;0.646;9.632;-2.974;0.011;-0.075;0.023;
20190905_113207;0.409;9.220;-2.859;-0.011;-0.074;0.022;
20190905_113207;0.692;9.486;-2.895;0.008;-0.074;0.023;
20190905_113208;0.678;9.438;-2.811;-0.009;-0.075;0.020;
20190905_113208;1.030;9.242;-2.823;-0.001;-0.077;0.021;
20190905_113208;0.678;9.287;-2.935;0.008;-0.074;0.016;
20190905_113208;0.680;9.292;-2.849;-0.015;-0.075;0.017;
20190905_113208;0.479;9.409;-2.830;0.013;-0.074;0.019;
20190905_113208;0.764;9.342;-2.784;-0.012;-0.078;0.018;
20190905_113208;0.833;9.364;-2.897;0.013;-0.075;0.020;
20190905_113208;0.871;9.486;-2.698;-0.021;-0.079;0.021;
20190905_113208;0.644;9.412;-2.897;0.014;-0.075;0.021;
20190905_113209;0.460;9.493;-2.828;-0.009;-0.075;0.017;
20190905_113209;0.651;9.586;-2.847;0.004;-0.074;0.019;
20190905_113209;0.663;9.215;-2.856;-0.017;-0.079;0.014;
20190905_113209;0.560;9.366;-2.684;0.001;-0.077;0.018;
20190905_113209;0.599;9.445;-2.878;0.003;-0.075;0.018;
20190905_113209;1.025;9.275;-2.808;-0.009;-0.078;0.019;
20190905_113209;0.637;9.455;-2.823;0.009;-0.078;0.019;
20190905_113209;0.486;9.134;-2.804;-0.000;-0.076;0.017;
20190905_113209;0.682;9.450;-2.806;-0.004;-0.077;0.020;
20190905_113209;0.369;8.906;-2.868;-0.005;-0.077;0.020;
20190905_113210;0.893;9.562;-2.796;0.008;-0.079;0.026;
20190905_113210;0.910;9.471;-2.957;-0.004;-0.081;0.025;
20190905_113210;0.275;9.474;-2.947;-0.000;-0.072;0.026;
20190905_113210;0.723;9.246;-3.033;-0.008;-0.082;0.027;
20190905_113210;0.915;9.349;-2.763;0.003;-0.080;0.028;
20190905_113210;1.075;8.959;-3.031;0.013;-0.077;0.029;
20190905_113210;0.821;9.464;-2.969;-0.002;-0.080;0.029;
20190905_113210;0.405;9.155;-3.120;0.019;-0.074;0.027;
20190905_113210;0.642;9.529;-3.122;-0.003;-0.075;0.027;
20190905_113211;1.101;9.752;-3.019;-0.010;-0.081;0.028;
20190905_113211;0.809;8.926;-3.148;-0.008;-0.081;0.025;
20190905_113211;0.783;9.129;-3.187;-0.003;-0.076;0.027;
20190905_113211;1.077;9.254;-3.187;0.012;-0.073;0.029;
20190905_113211;0.716;9.615;-3.218;0.007;-0.072;0.029;
20190905_113211;0.414;9.043;-3.287;0.005;-0.070;0.027;
20190905_113211;0.591;9.222;-3.168;0.004;-0.070;0.027;
20190905_113211;0.891;9.043;-3.508;0.014;-0.072;0.023;
20190905_113211;1.532;9.543;-3.306;-0.011;-0.074;0.025;
20190905_113211;1.080;9.704;-3.464;0.035;-0.071;0.025;
20190905_113212;0.907;8.930;-2.978;-0.050;-0.073;0.018;
20190905_113212;0.812;9.354;-3.543;0.041;-0.059;0.022;
20190905_113212;0.972;8.962;-3.292;-0.035;-0.067;0.016;
20190905_113212;1.144;9.170;-3.452;0.020;-0.058;0.019;
20190905_113212;0.982;8.882;-3.802;0.008;-0.047;0.016;
20190905_113212;0.730;9.026;-3.397;-0.010;-0.047;0.018;
20190905_113212;0.883;9.529;-3.646;0.030;-0.045;0.021;
20190905_113212;1.109;9.572;-3.266;-0.026;-0.046;0.015;
20190905_113212;1.022;9.254;-3.390;0.004;-0.040;0.012;
20190905_113213;1.243;9.218;-3.440;-0.008;-0.040;0.012;
20190905_113213;0.618;9.299;-3.524;0.002;-0.027;0.013;
20190905_113213;0.627;9.237;-3.285;-0.012;-0.028;0.010;
20190905_113213;0.718;9.218;-3.575;0.012;-0.022;0.007;
20190905_113213;0.888;8.849;-3.417;-0.019;-0.021;0.005;
20190905_113213;0.294;9.172;-3.294;0.007;-0.018;0.004;
20190905_113213;1.101;9.134;-3.565;0.009;-0.018;0.007;
20190905_113213;0.742;9.397;-3.340;-0.021;-0.017;0.011;
20190905_113213;0.814;9.369;-3.594;0.017;-0.015;0.009;
20190905_113213;0.876;9.134;-3.575;-0.016;-0.014;0.005;
20190905_113214;0.848;9.469;-3.428;0.005;-0.015;0.011;
20190905_113214;0.632;9.163;-3.666;-0.001;-0.012;-0.001;
20190905_113214;0.041;9.234;-3.395;-0.020;-0.007;0.005;
20190905_113214;0.735;9.179;-3.680;0.033;-0.015;0.002;
20190905_113214;0.814;9.160;-3.395;-0.034;-0.013;0.002;
20190905_113214;0.807;9.316;-3.644;0.024;-0.014;0.003;
20190905_113214;0.359;9.400;-3.565;-0.011;-0.010;0.004;
20190905_113214;0.172;9.041;-3.565;0.003;-0.008;0.002;
20190905_113214;0.613;9.498;-3.666;0.014;-0.009;0.001;
20190905_113215;0.840;9.043;-3.632;-0.006;-0.016;0.003;
20190905_113215;0.512;9.407;-3.943;0.031;-0.007;0.003;
20190905_113215;0.357;9.297;-3.713;-0.025;-0.006;0.005;
20190905_113215;0.457;9.038;-4.125;0.036;-0.007;0.004;
20190905_113215;0.527;9.471;-3.745;-0.047;-0.003;0.005;
20190905_113215;0.678;8.933;-3.864;0.003;-0.007;-0.001;
20190905_113215;0.050;9.333;-3.831;-0.003;0.002;0.004;
20190905_113215;0.472;9.316;-3.974;0.005;-0.007;-0.002;
20190905_113215;0.199;9.091;-3.747;-0.013;-0.003;0.005;
20190905_113215;0.661;8.909;-3.900;0.015;-0.006;0.002;
20190905_113216;0.005;9.041;-3.972;-0.000;0.005;0.002;
20190905_113216;0.227;9.254;-4.029;0.017;0.003;0.006;
20190905_113216;0.180;9.179;-3.809;-0.014;-0.006;0.000;
20190905_113216;0.196;9.531;-4.221;0.030;0.003;0.004;
20190905_113216;0.424;9.167;-4.027;-0.034;-0.008;0.002;
20190905_113216;0.294;9.337;-4.008;0.019;0.001;0.002;
20190905_113216;0.323;9.043;-4.089;-0.026;-0.008;-0.001;
20190905_113216;0.405;9.177;-3.950;0.016;0.002;0.003;
20190905_113216;0.218;9.280;-3.958;-0.014;0.001;0.000;
20190905_113217;0.436;9.244;-3.800;-0.011;0.001;0.002;
20190905_113217;0.232;8.854;-4.195;0.017;-0.002;-0.001;
20190905_113217;0.342;8.985;-3.723;-0.031;0.001;0.001;
20190905_113217;0.402;8.792;-4.130;0.025;0.005;0.002;
20190905_113217;0.318;8.890;-4.075;-0.005;0.001;0.004;
20190905_113217;-0.057;9.103;-3.991;0.005;0.009;0.005;
20190905_113217;0.646;9.541;-4.305;0.018;0.003;0.006;
20190905_113217;0.682;9.369;-3.905;-0.015;-0.005;0.006;
20190905_113217;0.565;9.364;-4.276;0.022;0.001;0.003;
20190905_113217;0.182;9.172;-4.113;-0.014;0.001;0.002;
20190905_113218;0.611;8.763;-4.108;0.005;0.004;0.001;
20190905_113218;0.321;8.959;-4.149;0.006;0.005;0.001;
20190905_113218;0.354;9.100;-4.436;0.011;0.008;0.001;
20190905_113218;0.103;8.954;-4.125;-0.022;0.003;-0.006;
20190905_113218;0.034;9.218;-4.214;0.015;0.007;0.002;
20190905_113218;0.819;9.273;-4.310;-0.010;-0.005;-0.002;
20190905_113218;0.388;9.076;-4.101;0.005;-0.002;0.004;
20190905_113218;0.017;9.273;-4.156;-0.001;0.004;0.012;
20190905_113218;0.077;9.055;-4.252;-0.000;-0.002;0.004;
20190905_113219;0.093;9.400;-4.140;0.011;0.009;0.012;
20190905_113219;0.079;9.187;-4.053;-0.014;-0.001;0.003;
20190905_113219;0.445;8.552;-4.228;-0.013;-0.006;0.000;
20190905_113219;0.464;9.005;-4.561;0.023;-0.003;0.003;
20190905_113219;0.354;9.007;-4.104;-0.011;-0.010;0.003;
20190905_113219;0.273;8.605;-4.295;0.002;-0.008;0.000;
20190905_113219;0.196;8.794;-4.302;0.015;-0.007;-0.002;
20190905_113219;0.634;9.009;-4.451;-0.001;-0.016;0.000;
20190905_113219;0.611;8.789;-4.527;0.002;-0.009;0.000;
20190905_113220;0.692;8.904;-4.434;0.018;-0.015;0.001;
20190905_113220;0.127;9.263;-4.645;0.013;-0.002;0.006;
20190905_113220;0.206;8.945;-4.192;-0.040;-0.009;0.003;
20190905_113220;0.450;8.777;-5.016;0.034;-0.014;0.000;
20190905_113220;0.510;9.359;-4.752;-0.035;-0.009;0.002;
20190905_113220;0.816;8.435;-4.733;-0.003;-0.011;-0.002;
20190905_113220;0.373;8.744;-5.061;0.025;0.002;0.005;
20190905_113220;0.737;9.127;-4.697;-0.018;-0.007;0.002;
20190905_113220;0.438;9.299;-4.762;0.033;-0.005;0.003;
20190905_113220;0.622;9.009;-4.683;-0.048;-0.018;-0.004;
20190905_113221;0.541;8.282;-4.614;0.016;-0.009;-0.001;
20190905_113221;0.096;8.739;-4.662;0.001;0.003;0.009;
20190905_113221;0.180;8.744;-4.930;-0.002;-0.008;0.003;
20190905_113221;0.304;8.425;-4.638;-0.014;-0.011;0.006;
20190905_113221;0.067;8.851;-4.985;0.034;0.004;0.013;
20190905_113221;0.175;8.466;-4.647;-0.026;-0.001;0.002;
20190905_113221;0.520;9.096;-4.824;0.027;0.001;0.005;
20190905_113221;-0.014;9.115;-5.061;-0.006;-0.001;0.000;
20190905_113221;0.498;9.017;-4.647;-0.017;-0.008;0.000;
20190905_113222;0.922;9.136;-4.942;-0.002;-0.003;0.003;
20190905_113222;0.115;8.602;-4.688;-0.015;-0.003;0.003;
20190905_113222;0.074;8.885;-4.666;-0.005;-0.006;-0.002;
20190905_113222;-0.141;9.254;-4.664;0.001;-0.000;0.004;
20190905_113222;0.160;8.602;-4.484;-0.043;-0.008;0.000;
20190905_113222;0.352;9.448;-5.054;0.052;-0.003;0.010;
20190905_113222;0.807;9.213;-4.990;-0.040;-0.015;-0.005;
20190905_113222;0.385;9.014;-4.721;-0.002;-0.007;0.002;
20190905_113222;-0.165;8.633;-4.843;0.004;-0.005;0.000;
20190905_113222;0.208;8.102;-4.657;-0.006;-0.007;-0.002;
20190905_113223;0.151;9.208;-4.781;0.024;-0.003;0.001;
20190905_113223;0.230;9.402;-5.095;0.005;-0.002;0.001;
20190905_113223;1.271;9.076;-4.669;-0.005;-0.015;0.005;
20190905_113223;0.658;9.495;-5.049;0.045;-0.007;0.014;
20190905_113223;0.385;8.825;-4.808;-0.047;-0.009;0.005;
20190905_113223;0.656;8.811;-4.841;0.033;-0.001;0.011;
20190905_113223;0.342;9.122;-4.939;-0.021;0.001;0.009;
20190905_113223;0.821;8.533;-4.877;0.013;-0.006;0.010;
20190905_113223;0.527;9.122;-4.707;-0.005;-0.002;0.005;
20190905_113224;0.467;8.856;-4.887;0.004;-0.008;0.000;
20190905_113224;-0.007;9.033;-4.932;0.001;0.009;0.001;
20190905_113224;0.687;9.122;-4.800;-0.008;-0.001;0.000;
20190905_113224;0.031;8.456;-4.836;-0.009;0.001;0.000;
20190905_113224;0.340;8.569;-4.911;0.012;0.002;0.002;
20190905_113224;0.658;8.547;-4.808;-0.012;-0.001;0.000;
20190905_113224;0.764;8.432;-4.992;0.011;0.002;0.007;
20190905_113224;0.136;9.129;-4.669;0.002;0.008;0.001;
20190905_113224;0.747;9.278;-5.207;0.035;0.001;0.004;
20190905_113225;0.421;9.404;-4.503;-0.030;0.002;0.004;
20190905_113225;-0.163;7.903;-4.841;0.050;0.009;-0.001;
20190905_113225;-0.211;9.404;-4.820;-0.006;0.011;0.005;
20190905_113225;0.436;8.571;-4.925;-0.024;-0.002;-0.005;
20190905_113225;0.010;8.940;-4.889;0.036;0.011;0.000;
20190905_113225;0.474;8.607;-4.760;-0.026;-0.005;-0.001;
20190905_113225;-0.220;8.954;-4.908;0.038;0.005;-0.001;
20190905_113225;0.153;8.741;-4.638;-0.034;-0.001;-0.002;
20190905_113225;0.484;8.590;-4.755;-0.010;0.001;0.002;
20190905_113225;0.151;8.897;-4.750;0.005;0.005;0.005;
20190905_113226;-0.467;9.278;-4.870;-0.018;0.007;0.004;
20190905_113226;1.128;8.365;-4.906;0.007;-0.000;0.001;
20190905_113226;0.713;8.875;-4.752;-0.000;-0.008;-0.004;
20190905_113226;0.158;9.517;-4.870;0.024;0.007;-0.007;
20190905_113226;0.043;9.194;-4.772;-0.018;0.002;-0.011;
20190905_113226;0.455;8.868;-4.884;0.012;0.001;-0.005;
20190905_113226;0.038;8.739;-4.882;0.023;0.001;-0.007;
20190905_113226;0.328;8.605;-4.695;-0.022;-0.001;-0.008;
20190905_113226;0.457;9.110;-4.733;0.008;0.002;0.000;
20190905_113227;0.055;8.952;-5.064;-0.024;0.003;-0.003;
20190905_113227;-0.014;9.141;-4.884;0.021;0.007;0.009;
20190905_113227;0.345;9.675;-4.949;-0.017;0.007;0.010;
20190905_113227;0.326;8.796;-4.726;-0.018;0.008;0.004;
20190905_113227;0.306;8.792;-4.606;-0.012;-0.000;0.001;
20190905_113227;0.697;8.191;-5.049;0.036;0.004;0.002;
20190905_113227;0.103;8.392;-4.446;-0.016;0.004;-0.001;
20190905_113227;-0.012;9.005;-4.764;0.008;0.011;-0.001;
20190905_113227;0.002;9.416;-4.791;-0.015;0.004;-0.005;
20190905_113228;0.757;8.765;-4.968;0.006;-0.007;-0.012;
20190905_113228;0.474;9.172;-4.772;0.009;0.008;-0.003;
20190905_113228;-0.879;9.814;-5.114;0.019;0.013;-0.001;
20190905_113228;0.237;8.475;-4.393;-0.042;-0.000;-0.002;
20190905_113228;0.452;9.012;-4.918;0.023;0.005;0.011;
20190905_113228;0.441;8.552;-4.937;-0.008;-0.001;0.001;
20190905_113228;0.508;8.188;-4.676;0.017;-0.000;0.001;
20190905_113228;0.601;9.230;-5.468;0.041;0.005;0.003;
20190905_113228;-0.395;9.383;-4.544;-0.052;0.007;0.004;
20190905_113228;-0.225;9.160;-4.630;-0.018;0.002;-0.003;
20190905_113229;-0.314;8.880;-4.791;0.002;0.016;0.000;
20190905_113229;-0.342;8.382;-4.573;-0.034;-0.002;-0.007;
20190905_113229;0.433;8.681;-4.743;0.017;-0.007;-0.003;
20190905_113229;0.716;8.712;-5.047;0.015;-0.005;-0.002;
20190905_113229;-0.165;9.091;-4.937;-0.001;0.008;0.006;
20190905_113229;-0.484;9.012;-4.482;-0.019;0.007;0.001;
20190905_113229;-0.476;8.837;-4.745;0.013;0.004;0.003;
20190905_113229;-0.062;8.875;-4.355;-0.038;-0.003;0.001;
20190905_113229;0.323;8.935;-4.812;0.037;0.005;0.000;
20190905_113230;0.618;8.633;-4.846;-0.005;-0.001;0.003;
20190905_113230;1.022;8.095;-4.662;-0.009;-0.008;-0.003;
20190905_113230;0.728;9.371;-5.298;0.054;-0.006;0.006;
20190905_113230;-0.220;8.478;-4.611;-0.057;-0.005;-0.006;
20190905_113230;-1.041;9.112;-4.525;0.039;0.021;0.007;
20190905_113230;-0.910;9.708;-4.697;-0.020;0.010;-0.003;
20190905_113230;0.120;9.369;-4.549;0.005;-0.005;0.012;
20190905_113230;0.151;9.143;-4.554;-0.003;-0.005;0.006;
20190905_113230;-0.103;9.301;-4.719;0.006;-0.001;0.007;
20190905_113230;-0.192;9.112;-4.650;0.001;0.002;-0.001;
20190905_113231;0.723;9.459;-4.683;0.012;0.005;0.009;
20190905_113231;-0.220;8.698;-4.654;-0.010;-0.008;-0.006;
20190905_113231;0.151;9.268;-4.626;0.023;0.005;0.003;
20190905_113231;0.448;8.538;-4.551;-0.010;-0.001;-0.001;
20190905_113231;0.864;8.384;-4.726;0.023;0.003;0.010;
20190905_113231;0.134;9.110;-5.140;0.025;0.004;0.002;
20190905_113231;-0.055;8.346;-4.424;-0.031;0.007;0.005;
20190905_113231;0.050;9.060;-5.308;0.072;0.010;0.009;
20190905_113231;0.747;8.653;-4.808;-0.026;-0.011;-0.001;
20190905_113232;0.328;8.926;-4.875;0.020;0.004;0.004;
20190905_113232;0.199;8.432;-4.966;-0.017;0.006;0.009;
20190905_113232;0.306;8.428;-4.664;0.015;-0.006;0.005;
20190905_113232;0.553;8.380;-4.781;-0.001;-0.003;0.000;
20190905_113232;-0.041;9.455;-4.824;0.009;0.002;-0.002;
20190905_113232;0.321;7.901;-4.719;-0.009;0.004;0.000;
20190905_113232;-0.235;9.139;-4.829;0.030;0.007;0.003;
20190905_113232;0.864;7.635;-4.484;-0.043;-0.006;-0.003;
20190905_113232;0.242;8.583;-4.764;0.036;0.009;0.013;
20190905_113232;0.005;8.308;-4.626;0.011;0.007;0.007;
20190905_113233;-0.409;8.966;-4.774;0.006;-0.001;-0.004;
20190905_113233;0.452;9.258;-4.824;0.019;-0.008;0.005;
20190905_113233;-0.266;9.780;-4.911;0.003;0.002;0.002;
20190905_113233;0.599;8.792;-4.642;-0.006;-0.007;0.009;
20190905_113233;-0.101;9.536;-4.745;0.009;0.005;0.006;
20190905_113233;0.529;8.722;-4.568;-0.025;-0.009;0.005;
20190905_113233;0.139;8.763;-4.401;0.003;0.002;0.007;
20190905_113233;0.618;8.478;-4.918;0.040;-0.005;0.004;
20190905_113234;-0.199;8.590;-4.405;-0.013;-0.003;-0.007;
20190905_113234;0.678;9.280;-4.879;0.039;-0.006;0.004;
20190905_113234;0.611;8.420;-4.652;-0.015;-0.005;0.000;
20190905_113234;0.613;9.562;-4.831;0.034;-0.010;0.001;
20190905_113234;-0.275;8.748;-4.654;-0.041;-0.003;0.000;
20190905_113234;0.563;9.756;-4.877;0.031;-0.001;0.010;
20190905_113234;0.452;7.922;-4.322;-0.042;-0.013;0.000;
20190905_113234;-0.077;10.149;-4.836;0.096;0.013;0.014;
20190905_113234;0.089;8.351;-4.525;-0.086;-0.012;-0.004;
20190905_113234;0.436;10.326;-4.863;0.102;-0.002;0.014;
20190905_113235;0.620;7.740;-4.745;-0.126;-0.000;0.012;
20190905_113235;0.670;8.198;-4.566;0.111;0.005;0.000;
20190905_113235;0.460;7.283;-4.834;0.009;-0.012;-0.004;
20190905_113235;0.807;9.148;-4.037;-0.129;-0.003;0.009;
20190905_113235;-0.022;9.898;-5.880;0.180;0.019;0.015;
20190905_113235;0.572;9.112;-3.651;-0.257;-0.010;-0.003;
20190905_113235;0.601;9.699;-4.839;0.215;-0.005;0.016;
20190905_113235;0.905;8.878;-5.406;-0.016;-0.000;0.001;
20190905_113235;0.371;8.487;-3.603;-0.029;-0.002;0.003;
20190905_113236;0.603;7.937;-5.231;0.138;0.001;0.016;
20190905_113236;-0.091;8.346;-4.652;-0.065;0.004;0.002;
20190905_113236;0.010;9.507;-4.616;0.058;0.004;0.003;
20190905_113236;1.791;9.658;-5.140;0.015;-0.011;0.005;
20190905_113236;0.728;8.904;-4.372;-0.030;-0.007;-0.004;
20190905_113236;0.718;9.103;-4.798;0.011;0.007;0.007;
20190905_113236;-0.594;8.157;-4.779;-0.027;0.013;-0.001;
20190905_113236;0.113;8.483;-4.293;-0.032;0.006;0.000;
20190905_113236;0.955;8.734;-4.853;0.070;-0.006;0.005;
20190905_113236;0.304;8.430;-4.721;-0.070;-0.007;0.001;
20190905_113237;0.034;9.680;-5.028;0.066;0.001;0.005;
20190905_113237;0.014;8.842;-5.191;-0.081;-0.006;-0.001;
20190905_113237;0.280;8.552;-4.372;0.028;0.013;0.015;
20190905_113237;0.747;9.184;-5.385;0.055;-0.005;0.010;
20190905_113237;0.448;7.570;-4.123;-0.110;-0.000;-0.005;
20190905_113237;0.615;9.323;-4.812;0.100;0.005;0.003;
20190905_113237;1.144;8.554;-4.697;-0.067;-0.017;-0.007;
20190905_113237;0.716;8.641;-4.446;-0.020;-0.008;0.003;
20190905_113237;0.230;9.131;-5.037;0.025;-0.005;-0.004;
20190905_113238;0.352;9.120;-4.863;-0.003;-0.001;-0.001;
20190905_113238;0.989;9.345;-4.611;0.011;0.001;-0.003;
20190905_113238;-0.038;8.210;-4.741;-0.018;0.002;-0.008;
20190905_113238;0.000;8.705;-4.755;-0.000;0.007;0.003;
20190905_113238;0.206;9.146;-4.592;0.004;0.005;0.003;
20190905_113238;0.232;8.892;-4.559;0.001;-0.003;0.000;
20190905_113238;0.342;9.187;-4.992;-0.014;-0.002;-0.002;
20190905_113238;0.493;8.964;-4.427;-0.021;0.001;-0.006;
20190905_113238;0.546;9.230;-5.162;0.052;-0.003;-0.005;
20190905_113239;0.251;8.284;-4.209;-0.066;-0.008;0.003;
20190905_113239;-0.220;8.849;-4.855;0.052;0.010;-0.003;
20190905_113239;-0.175;8.777;-4.501;-0.061;-0.000;-0.004;
20190905_113239;0.369;8.447;-4.628;0.061;0.007;0.000;
20190905_113239;0.290;9.244;-4.645;-0.048;-0.007;-0.005;
20190905_113239;0.163;8.622;-4.379;-0.003;0.010;0.001;
20190905_113239;0.505;9.050;-4.870;0.036;0.008;0.006;
20190905_113239;-0.385;8.866;-4.762;-0.030;0.010;-0.001;
20190905_113239;0.500;9.823;-4.810;0.043;0.005;0.007;
20190905_113239;0.543;9.021;-4.731;-0.018;-0.002;0.000;
20190905_113240;0.225;9.230;-4.544;-0.026;-0.002;-0.002;
20190905_113240;-0.429;9.110;-5.222;0.032;0.002;-0.002;
20190905_113240;0.464;7.336;-3.859;-0.065;-0.009;-0.005;
20190905_113240;-0.247;8.375;-5.080;0.088;0.016;-0.002;
20190905_113240;-0.129;9.299;-4.515;-0.043;0.001;0.002;
20190905_113240;0.103;9.002;-4.611;0.034;0.010;0.001;
20190905_113240;-0.266;9.548;-4.678;-0.009;0.004;0.000;
20190905_113240;0.484;9.290;-4.413;-0.015;-0.002;0.000;
20190905_113240;0.069;8.337;-5.092;0.045;-0.006;0.000;
20190905_113241;0.824;8.727;-4.228;-0.038;-0.002;0.000;
20190905_113241;0.333;8.887;-5.102;0.046;-0.005;-0.005;
20190905_113241;0.723;8.588;-4.204;-0.057;-0.002;0.004;
20190905_113241;0.414;9.254;-5.088;0.078;-0.005;-0.003;
20190905_113241;0.316;9.213;-4.626;-0.044;-0.005;-0.001;
20190905_113241;-0.002;9.206;-4.762;0.022;-0.002;0.001;
20190905_113241;-0.153;8.538;-4.628;-0.030;-0.005;-0.003;
20190905_113241;0.067;8.973;-4.609;0.019;-0.003;0.001;
20190905_113241;-0.151;8.610;-4.683;-0.013;-0.006;-0.004;
20190905_113242;0.371;9.814;-4.824;0.029;-0.003;0.007;
20190905_113242;-0.201;9.024;-4.882;-0.034;0.001;0.007;
20190905_113242;-0.366;8.770;-4.379;0.003;0.010;0.007;
20190905_113242;-0.187;8.610;-4.762;0.023;0.002;0.006;
20190905_113242;-0.067;8.157;-4.286;-0.020;-0.000;0.000;
20190905_113242;0.204;9.000;-4.733;0.047;0.007;0.005;
20190905_113242;0.654;9.361;-4.731;-0.030;-0.002;0.005;
20190905_113242;-0.263;8.377;-4.362;-0.008;0.004;0.004;
20190905_113242;0.694;9.325;-4.604;0.020;0.003;0.009;
20190905_113242;-0.065;9.335;-4.726;0.011;0.005;0.012;
20190905_113243;0.510;9.392;-4.513;-0.001;-0.007;-0.003;
20190905_113243;0.232;9.527;-4.858;0.008;-0.001;0.001;
20190905_113243;0.117;9.091;-4.640;-0.021;-0.005;0.000;
20190905_113243;0.182;8.964;-4.350;-0.014;0.007;0.009;
20190905_113243;0.876;9.383;-4.757;0.022;-0.001;0.005;
20190905_113243;0.493;8.492;-4.029;-0.075;-0.011;-0.004;
20190905_113243;0.369;8.808;-4.652;0.034;-0.001;0.004;
20190905_113243;1.022;8.602;-4.420;-0.047;-0.011;0.002;
20190905_113243;0.280;9.158;-5.176;0.069;0.009;0.007;
20190905_113244;0.113;9.756;-4.719;-0.006;-0.001;0.002;
20190905_113244;0.254;8.641;-4.676;0.018;0.007;0.003;
20190905_113244;0.843;9.122;-4.695;0.007;-0.012;0.002;
20190905_113244;1.013;8.835;-4.300;-0.015;0.001;0.005;
20190905_113244;0.306;8.837;-4.549;0.001;0.003;-0.004;
20190905_113244;0.599;8.076;-4.312;-0.018;-0.013;-0.007;
20190905_113244;0.520;9.646;-4.705;0.034;0.007;0.006;
20190905_113244;0.493;9.512;-4.855;-0.004;-0.010;0.001;
20190905_113244;0.611;9.586;-4.590;-0.013;0.002;-0.003;
20190905_113245;0.077;8.598;-4.568;-0.015;0.011;0.001;
20190905_113245;0.555;7.975;-4.290;-0.002;-0.009;0.000;
20190905_113245;0.436;8.636;-4.381;-0.005;-0.005;-0.001;
20190905_113245;0.740;8.645;-4.374;0.021;-0.001;-0.001;
20190905_113245;0.898;9.455;-4.669;0.004;-0.000;0.009;
20190905_113245;0.558;9.218;-4.573;-0.012;-0.008;0.001;
20190905_113245;0.591;8.875;-4.676;0.016;-0.001;0.004;
20190905_113245;0.321;8.923;-4.772;-0.002;0.001;0.002;
20190905_113245;0.163;8.370;-4.401;-0.005;0.005;0.009;
20190905_113246;0.069;9.687;-4.980;0.082;-0.001;-0.003;
20190905_113246;-0.215;8.068;-4.334;-0.106;0.003;-0.004;
20190905_113246;0.256;8.485;-4.120;0.031;0.002;-0.003;
20190905_113246;-0.165;9.081;-5.124;0.113;0.009;0.009;
20190905_113246;0.891;8.468;-3.821;-0.131;-0.002;-0.012;
20190905_113246;1.192;9.828;-4.915;0.135;-0.000;0.004;
20190905_113246;0.369;9.467;-4.415;-0.144;-0.014;-0.010;
20190905_113246;0.479;8.918;-4.214;0.024;-0.003;-0.008;
20190905_113246;0.350;8.650;-4.712;0.006;-0.003;-0.002;
20190905_113246;0.294;8.339;-3.962;-0.026;-0.010;-0.001;
20190905_113247;0.266;9.486;-4.511;0.034;0.006;0.005;
20190905_113247;0.170;8.827;-4.515;-0.030;-0.008;-0.003;
20190905_113247;0.043;8.380;-4.130;0.020;-0.008;0.004;
20190905_113247;0.144;10.149;-4.614;0.001;0.007;0.004;
20190905_113247;-0.271;8.454;-4.324;-0.017;-0.005;-0.001;
20190905_113247;0.496;8.351;-4.424;0.006;0.003;0.004;
20190905_113247;0.350;9.258;-4.389;0.004;0.008;0.014;
20190905_113247;0.211;8.799;-4.446;0.009;-0.006;0.004;
20190905_113247;1.001;8.758;-4.061;-0.010;-0.012;0.002;
20190905_113248;0.860;8.229;-4.678;0.043;0.004;0.012;
20190905_113248;0.888;8.770;-4.113;-0.067;-0.011;-0.001;
20190905_113248;0.807;7.681;-4.432;0.119;-0.002;-0.003;
20190905_113248;0.654;7.642;-3.934;-0.101;-0.001;0.007;
20190905_113248;0.524;10.113;-4.499;0.051;-0.000;0.004;
20190905_113248;1.420;9.093;-5.030;-0.000;-0.011;-0.006;
20190905_113248;0.860;9.249;-4.295;-0.031;0.007;0.003;
20190905_113248;0.359;9.723;-4.906;0.033;-0.000;-0.011;
20190905_113248;0.713;7.740;-4.037;-0.061;-0.013;-0.013;
20190905_113248;0.996;8.188;-4.520;0.034;0.016;0.003;
20190905_113249;0.163;9.182;-4.085;-0.042;-0.006;-0.006;
20190905_113249;0.170;8.078;-4.408;0.031;0.002;-0.005;
20190905_113249;0.182;9.333;-4.724;0.002;-0.002;-0.005;
20190905_113249;0.594;9.471;-4.408;-0.013;0.001;0.001;
20190905_113249;0.855;9.649;-4.597;0.036;0.006;0.005;
20190905_113249;0.505;8.562;-4.539;-0.080;-0.006;-0.014;
20190905_113249;-0.338;9.146;-4.216;0.041;0.017;0.011;
20190905_113249;-0.108;9.799;-5.368;0.109;0.015;0.005;
20190905_113249;-1.013;7.501;-3.340;-0.259;0.013;-0.010;
20190905_113250;0.010;10.558;-4.745;0.214;0.022;0.020;
20190905_113250;0.163;7.575;-4.506;-0.114;0.008;0.000;
20190905_113250;0.031;9.699;-3.857;-0.020;0.004;-0.012;
20190905_113250;0.575;9.742;-5.576;0.217;0.001;-0.002;
20190905_113250;0.213;8.411;-4.070;-0.200;0.003;-0.007;
20190905_113250;-0.737;9.033;-4.274;0.082;0.023;0.009;
20190905_113250;-1.259;9.934;-5.306;0.055;0.008;-0.006;
20190905_113250;-0.031;8.511;-3.917;-0.096;0.007;-0.003;
20190905_113250;0.709;8.940;-3.950;0.022;-0.003;0.004;
20190905_113250;0.503;9.895;-5.282;0.086;0.001;0.007;
20190905_113251;-0.101;8.672;-3.946;-0.073;-0.006;-0.012;
20190905_113251;-0.476;9.766;-4.482;0.019;-0.000;0.000;
20190905_113251;0.385;8.744;-5.447;-0.006;-0.009;-0.010;
20190905_113251;-0.409;7.664;-3.211;-0.117;-0.008;-0.002;
20190905_113251;-0.766;9.246;-5.272;0.191;0.007;0.002;
20190905_113251;0.019;8.447;-4.216;-0.134;0.002;0.004;
20190905_113251;-0.474;8.138;-3.903;0.015;0.010;0.013;
20190905_113251;-0.378;9.778;-5.306;0.088;0.017;0.011;
20190905_113251;-0.611;9.385;-4.295;-0.071;-0.005;-0.001;
20190905_113252;-0.263;9.591;-4.403;0.060;0.004;0.009;
20190905_113252;-0.034;9.826;-5.133;0.016;0.004;0.003;
20190905_113252;-0.263;8.234;-3.692;-0.114;-0.010;-0.002;
20190905_113252;0.651;8.607;-4.539;0.096;0.002;0.004;
20190905_113252;0.788;9.292;-4.712;-0.034;-0.007;-0.003;
20190905_113252;1.216;9.550;-4.173;0.006;-0.007;0.010;
20190905_113252;0.864;9.313;-4.808;0.086;-0.012;0.002;
20190905_113252;0.654;9.170;-4.448;-0.028;-0.013;0.000;
20190905_113252;0.220;8.957;-4.580;0.048;-0.000;0.003;
20190905_113253;0.177;9.213;-4.930;0.027;-0.008;-0.006;
20190905_113253;-0.113;8.758;-4.161;0.027;-0.005;-0.003;
20190905_113253;0.120;9.347;-4.831;0.082;0.006;0.010;
20190905_113253;-0.043;8.363;-4.355;-0.022;-0.016;-0.013;
20190905_113253;0.759;8.794;-4.834;0.081;0.004;-0.001;
20190905_113253;0.194;9.203;-4.982;0.056;0.003;-0.002;
20190905_113253;-0.113;8.514;-4.673;0.031;0.002;-0.001;
20190905_113253;-0.532;9.165;-4.956;0.074;0.006;0.002;
20190905_113253;0.402;8.914;-4.843;0.004;-0.009;-0.002;
20190905_113253;0.306;8.215;-4.752;0.040;-0.006;0.000;
20190905_113254;0.397;9.256;-4.961;0.053;0.002;0.005;
20190905_113254;0.098;8.636;-5.294;0.021;-0.000;0.000;
20190905_113254;0.187;9.086;-4.858;0.038;0.006;0.005;
20190905_113254;0.227;8.545;-5.365;0.097;0.001;0.004;
20190905_113254;0.634;8.162;-4.709;0.004;-0.002;0.004;
20190905_113254;0.625;9.443;-5.380;0.118;0.003;0.003;
20190905_113254;0.412;8.188;-5.306;-0.029;-0.006;-0.004;
20190905_113254;-0.017;8.471;-4.484;0.066;0.019;0.007;
20190905_113254;0.031;8.547;-5.160;0.099;0.002;-0.006;
20190905_113255;0.711;7.903;-4.975;0.012;-0.002;0.000;
20190905_113255;-0.371;7.728;-5.289;0.068;0.013;0.004;
20190905_113255;-0.067;8.420;-5.514;0.066;0.008;0.004;
20190905_113255;0.402;9.962;-5.739;0.093;0.005;0.003;
20190905_113255;0.335;9.464;-5.636;0.016;0.001;0.010;
20190905_113255;0.057;9.680;-5.926;0.063;-0.002;-0.001;
20190905_113255;-0.378;9.728;-5.641;0.014;-0.001;-0.011;
20190905_113255;0.448;9.244;-5.746;0.038;-0.000;-0.001;
20190905_113255;0.036;8.947;-6.002;0.041;0.011;0.003;
20190905_113255;-0.010;9.105;-5.710;0.008;-0.005;-0.004;
20190905_113256;0.680;9.787;-5.954;0.032;-0.019;-0.004;
20190905_113256;-0.532;8.794;-5.825;0.006;-0.001;-0.001;
20190905_113256;0.108;9.038;-5.763;0.002;-0.011;-0.012;
20190905_113256;0.436;8.605;-5.679;-0.000;-0.005;0.005;
20190905_113256;0.060;8.892;-5.784;0.021;0.005;0.011;
20190905_113256;-0.012;8.875;-5.839;0.019;0.011;0.007;
20190905_113256;0.091;9.301;-5.365;0.021;0.007;0.017;
20190905_113256;0.029;9.055;-5.301;-0.010;-0.013;0.010;
20190905_113256;-0.546;9.687;-4.527;0.019;-0.005;0.004;
20190905_113257;0.599;8.566;-5.770;-0.050;-0.018;0.011;
20190905_113257;0.529;7.934;-5.581;0.006;0.009;0.011;
20190905_113257;0.582;8.255;-5.607;-0.017;0.014;0.013;
20190905_113257;0.761;7.807;-5.392;0.001;-0.000;0.019;
20190905_113257;-0.089;8.351;-5.799;0.006;0.016;0.022;
20190905_113257;0.053;8.363;-5.392;-0.022;0.004;0.026;
20190905_113257;0.323;8.442;-5.370;-0.002;0.010;0.020;
20190905_113257;0.060;8.207;-5.502;0.014;-0.003;-0.001;
20190905_113257;0.721;7.848;-5.284;-0.017;-0.005;0.004;
20190905_113258;0.067;8.329;-5.186;0.021;0.013;0.013;
20190905_113258;0.108;8.258;-5.380;-0.019;-0.006;0.004;
20190905_113258;0.424;8.478;-5.466;0.038;-0.000;0.012;
20190905_113258;0.400;8.950;-5.409;0.003;0.005;0.005;
20190905_113258;0.527;9.091;-5.835;0.060;-0.007;-0.005;
20190905_113258;0.378;9.141;-5.543;0.022;-0.006;0.001;
20190905_113258;0.043;8.236;-5.550;0.038;-0.005;-0.003;
20190905_113258;0.002;8.768;-5.729;0.016;0.004;-0.003;
20190905_113258;-0.302;8.636;-5.789;0.041;0.005;-0.001;
20190905_113258;0.512;9.069;-5.909;0.029;-0.007;-0.005;
20190905_113259;0.402;9.469;-5.892;0.046;-0.012;-0.004;
20190905_113259;0.014;8.638;-6.019;0.036;0.008;0.002;
20190905_113259;-0.148;9.840;-6.163;0.044;0.006;0.004;
20190905_113259;0.527;10.798;-6.548;0.051;0.004;0.009;
20190905_113259;0.824;10.817;-6.431;0.050;-0.003;-0.003;
20190905_113259;0.326;10.391;-6.436;0.025;-0.009;-0.013;
20190905_113259;0.113;10.003;-6.601;0.034;-0.002;-0.003;
20190905_113259;0.438;10.834;-6.531;0.020;0.002;0.001;
20190905_113259;0.385;11.009;-6.663;0.052;0.001;0.001;
20190905_113300;0.110;10.719;-6.601;0.008;-0.002;-0.005;
20190905_113300;0.230;10.546;-6.455;0.037;-0.010;-0.006;
20190905_113300;0.323;10.183;-6.625;0.034;0.002;0.002;
20190905_113300;0.354;11.260;-6.692;0.025;-0.006;-0.008;
20190905_113300;-0.215;10.041;-6.586;0.018;-0.001;-0.018;
20190905_113300;0.594;9.431;-6.191;0.006;-0.016;-0.019;
20190905_113300;0.412;10.230;-6.919;0.037;-0.003;-0.021;
20190905_113300;0.493;9.579;-6.615;0.025;-0.002;-0.007;
20190905_113300;-0.165;11.248;-7.092;0.046;-0.006;-0.005;
20190905_113301;0.764;10.345;-6.321;-0.009;-0.012;-0.010;
20190905_113301;0.359;10.482;-6.847;0.031;0.002;0.001;
20190905_113301;0.615;10.307;-6.354;0.001;0.002;0.003;
20190905_113301;0.144;10.446;-6.563;0.031;0.002;0.004;
20190905_113301;0.953;10.527;-6.335;-0.012;-0.001;0.007;
20190905_113301;-0.160;10.017;-6.191;0.019;0.010;0.005;
20190905_113301;0.237;10.537;-6.304;-0.001;-0.002;0.002;
20190905_113301;-0.108;9.311;-5.918;-0.005;0.006;0.000;
20190905_113301;0.120;9.955;-6.167;0.004;-0.002;0.005;
20190905_113301;-0.120;9.507;-5.969;-0.010;0.005;0.014;
20190905_113302;-0.067;9.934;-6.091;0.024;0.011;0.028;
20190905_113302;0.232;9.301;-5.859;-0.012;0.004;0.019;
20190905_113302;0.517;8.495;-5.823;0.005;0.010;0.022;
20190905_113302;1.276;9.311;-5.945;0.007;0.005;0.034;
20190905_113302;1.245;9.780;-5.772;0.029;0.005;0.034;
20190905_113302;-0.019;9.673;-5.995;0.015;0.011;0.028;
20190905_113302;-0.182;9.912;-6.050;0.035;0.008;0.028;
20190905_113302;0.522;9.706;-6.005;0.003;0.007;0.019;
20190905_113302;0.551;9.287;-5.974;0.030;0.010;0.027;
20190905_113303;0.057;9.948;-5.954;0.018;0.015;0.021;
20190905_113303;0.187;9.708;-6.029;0.015;0.010;0.019;
20190905_113303;-0.218;10.159;-6.048;0.027;0.017;0.021;
20190905_113303;-0.235;9.890;-6.043;-0.000;0.014;0.014;
20190905_113303;0.218;9.814;-5.933;0.004;0.016;0.011;
20190905_113303;0.486;9.828;-6.163;0.022;0.004;0.018;
20190905_113303;0.436;9.946;-5.875;-0.016;0.001;0.014;
20190905_113303;-0.402;9.776;-5.954;0.007;0.014;0.010;
20190905_113303;0.304;9.840;-5.863;-0.001;-0.003;0.006;
20190905_113303;0.464;9.596;-5.748;-0.012;0.004;0.002;
20190905_113304;0.127;9.778;-5.923;0.007;0.005;0.002;
20190905_113304;0.575;9.701;-5.744;-0.017;-0.000;-0.012;
20190905_113304;0.448;9.804;-5.930;0.012;0.004;-0.011;
20190905_113304;0.388;10.056;-5.959;-0.013;-0.005;-0.006;
20190905_113304;-0.757;10.084;-6.033;0.007;0.005;-0.010;
20190905_113304;0.520;9.816;-5.684;-0.030;-0.006;-0.015;
20190905_113304;0.857;9.869;-6.050;0.007;-0.010;-0.016;
20190905_113304;0.117;9.189;-5.727;-0.031;-0.011;-0.030;
20190905_113304;-0.067;9.292;-5.363;-0.009;-0.011;-0.034;
20190905_113305;0.464;9.139;-5.466;-0.011;-0.013;-0.038;
20190905_113305;0.108;7.932;-4.894;-0.062;-0.013;-0.048;
20190905_113305;0.342;8.217;-5.325;0.025;-0.010;-0.039;
20190905_113305;0.254;7.707;-4.688;-0.064;-0.022;-0.042;
20190905_113305;-0.376;7.575;-4.702;0.016;-0.010;-0.043;
20190905_113305;0.596;7.942;-4.841;-0.025;-0.021;-0.038;
20190905_113305;0.263;7.772;-4.714;-0.016;-0.012;-0.028;
20190905_113305;0.728;8.124;-5.167;0.016;-0.018;-0.020;
20190905_113305;0.424;8.021;-4.875;-0.027;-0.012;-0.017;
20190905_113305;-0.429;8.282;-5.018;0.027;0.009;-0.004;
20190905_113306;-0.417;8.013;-4.853;-0.020;-0.009;-0.008;
20190905_113306;0.486;8.033;-5.059;0.022;-0.006;-0.005;
20190905_113306;1.085;7.681;-4.705;-0.025;-0.013;-0.003;
20190905_113306;0.706;8.435;-5.174;0.046;0.002;0.004;
20190905_113306;1.061;7.934;-4.973;-0.028;-0.006;0.002;
20190905_113306;-0.249;8.191;-5.066;0.023;0.007;0.004;
20190905_113306;0.618;8.703;-5.253;0.007;0.005;0.018;
20190905_113306;0.656;8.329;-5.109;0.002;0.003;0.018;
20190905_113306;1.015;8.183;-5.047;-0.003;0.008;0.023;
20190905_113307;-0.970;8.574;-5.535;0.046;0.021;0.023;
20190905_113307;-0.057;8.633;-4.990;-0.031;0.015;0.028;
20190905_113307;0.366;8.887;-5.329;0.039;0.016;0.037;
20190905_113307;0.287;8.744;-5.270;-0.017;0.011;0.039;
20190905_113307;0.297;8.720;-5.092;0.021;0.015;0.030;
20190905_113307;0.366;8.622;-5.404;0.014;0.011;0.034;
20190905_113307;0.148;8.739;-5.203;0.005;0.017;0.028;
20190905_113307;0.314;8.806;-5.454;0.025;0.015;0.030;
20190905_113307;-0.235;9.043;-5.298;0.005;0.014;0.029;
20190905_113308;0.582;9.045;-5.389;0.012;0.005;0.017;
20190905_113308;0.474;9.179;-5.521;0.003;0.010;0.007;
20190905_113308;0.510;8.873;-5.329;0.009;0.004;-0.004;
20190905_113308;-0.323;9.117;-5.622;0.022;0.006;-0.008;
20190905_113308;-0.225;8.882;-5.325;0.005;-0.001;-0.014;
20190905_113308;0.831;8.990;-5.363;0.012;-0.006;-0.013;
20190905_113308;0.618;8.897;-5.404;0.002;-0.008;-0.018;
20190905_113308;0.045;9.062;-5.344;0.016;0.004;-0.015;
20190905_113308;0.115;8.487;-5.265;-0.004;-0.002;-0.020;
20190905_113308;0.091;8.770;-5.528;0.025;-0.003;-0.019;
20190905_113309;0.469;8.650;-5.394;-0.012;-0.008;-0.019;
20190905_113309;0.898;8.748;-5.521;0.034;-0.011;-0.021;
20190905_113309;0.103;8.806;-5.502;-0.002;-0.008;-0.022;
20190905_113309;0.163;9.301;-5.576;0.034;0.001;-0.016;
20190905_113309;-0.043;9.206;-5.430;-0.014;-0.006;-0.013;
20190905_113309;0.283;9.074;-5.557;0.019;-0.000;-0.007;
20190905_113309;0.417;9.172;-5.660;0.015;-0.005;0.004;
20190905_113309;0.194;8.981;-5.478;-0.006;-0.002;0.002;
20190905_113309;0.211;9.167;-5.839;0.022;0.008;0.012;
20190905_113310;-0.074;9.167;-5.626;0.003;0.004;0.019;
20190905_113310;-0.017;9.170;-5.844;0.027;0.004;0.021;
20190905_113310;0.589;9.361;-5.684;0.001;0.003;0.029;
20190905_113310;-0.364;9.218;-5.509;0.001;0.011;0.031;
20190905_113310;-0.105;9.256;-5.679;0.013;0.007;0.029;
20190905_113310;0.464;8.868;-5.468;-0.005;0.004;0.028;
20190905_113310;0.206;9.213;-5.667;0.020;0.013;0.029;
20190905_113310;0.290;8.950;-5.519;-0.013;0.005;0.020;
20190905_113310;0.005;9.110;-5.449;0.016;0.008;0.018;
20190905_113310;0.402;9.115;-5.476;-0.014;0.001;0.015;
20190905_113311;-0.017;8.899;-5.373;0.006;0.006;0.007;
20190905_113311;0.500;8.830;-5.428;-0.006;0.001;0.003;
20190905_113311;0.204;8.770;-5.437;0.006;-0.001;-0.003;
20190905_113311;-0.036;8.629;-5.442;-0.003;-0.001;-0.013;
20190905_113311;0.194;8.892;-5.394;-0.002;-0.005;-0.013;
20190905_113311;0.189;8.662;-5.406;-0.004;-0.003;-0.017;
20190905_113311;0.357;8.435;-5.329;0.005;-0.003;-0.017;
20190905_113311;0.074;8.952;-5.461;0.009;-0.005;-0.016;
20190905_113311;-0.067;8.552;-5.301;-0.013;-0.009;-0.023;
20190905_113312;0.199;8.487;-5.382;0.014;-0.009;-0.021;
20190905_113312;0.711;8.818;-5.430;-0.009;-0.011;-0.015;
20190905_113312;-0.065;8.566;-5.437;0.013;-0.000;-0.015;
20190905_113312;0.596;8.684;-5.370;-0.009;-0.011;-0.014;
20190905_113312;0.515;8.641;-5.519;0.016;-0.006;-0.012;
20190905_113312;0.613;8.753;-5.380;-0.021;-0.006;-0.013;
20190905_113312;0.622;8.531;-5.624;0.022;-0.003;-0.011;
20190905_113312;0.452;8.648;-5.296;-0.010;-0.008;-0.012;
20190905_113312;0.383;8.502;-5.397;-0.002;-0.005;-0.011;
20190905_113312;0.323;8.562;-5.306;-0.000;-0.003;-0.007;
20190905_113313;0.438;8.430;-5.442;0.003;-0.002;-0.003;
20190905_113313;0.103;8.133;-5.243;0.004;-0.001;-0.003;
20190905_113313;0.017;8.712;-5.406;0.003;0.005;0.002;
20190905_113313;0.328;8.416;-5.296;-0.019;-0.003;-0.003;
20190905_113313;0.309;8.248;-5.392;0.013;0.004;0.001;
20190905_113313;0.254;8.576;-5.404;-0.002;-0.001;0.001;
20190905_113313;0.148;8.145;-5.210;-0.012;0.003;-0.003;
20190905_113313;0.235;8.590;-5.423;0.009;0.003;0.001;
20190905_113313;0.275;8.437;-5.313;-0.011;-0.001;-0.001;
20190905_113314;0.364;8.509;-5.444;0.006;0.002;-0.001;
20190905_113314;0.508;8.452;-5.322;-0.006;-0.001;0.001;
20190905_113314;0.081;8.310;-5.416;0.006;0.004;0.001;
20190905_113314;0.084;8.179;-5.241;-0.006;0.001;-0.003;
20190905_113314;0.503;8.432;-5.375;0.003;-0.001;0.002;
20190905_113314;0.309;8.028;-5.284;-0.012;0.001;0.001;
20190905_113314;0.376;8.428;-5.349;0.006;0.002;0.003;
20190905_113314;0.488;8.131;-5.289;-0.008;-0.000;0.006;
20190905_113314;0.117;8.203;-5.279;0.001;0.002;0.004;
20190905_113315;0.558;8.334;-5.392;0.001;0.003;0.003;
20190905_113315;0.579;8.181;-5.294;-0.014;0.002;0.003;
20190905_113315;0.036;8.286;-5.461;0.006;0.009;0.004;
20190905_113315;0.192;8.229;-5.325;-0.002;0.005;0.002;
20190905_113315;0.599;8.351;-5.375;0.001;-0.000;0.001;
20190905_113315;0.156;8.253;-5.298;-0.006;0.006;0.001;
20190905_113315;0.113;8.138;-5.397;0.003;0.006;0.000;
20190905_113315;0.455;8.009;-5.171;-0.001;0.003;0.000;
20190905_113315;0.402;8.164;-5.250;0.003;0.003;0.000;
20190905_113316;0.333;8.128;-5.229;0.001;0.001;0.001;
20190905_113316;0.172;7.918;-5.145;-0.006;0.003;0.000;
20190905_113316;0.517;7.994;-5.217;0.013;0.003;0.004;
20190905_113316;-0.175;8.298;-5.205;-0.006;0.005;-0.001;
20190905_113316;0.129;7.319;-5.322;0.018;0.015;0.006;
20190905_113316;0.524;8.303;-5.167;-0.005;-0.000;0.003;
20190905_113316;0.098;8.159;-5.203;0.007;0.004;0.006;
20190905_113316;0.515;8.045;-5.176;0.005;-0.005;0.003;
20190905_113316;0.496;8.255;-5.507;0.018;0.006;0.002;
20190905_113316;-0.017;8.248;-5.325;0.013;0.002;0.002;
20190905_113317;0.218;9.036;-5.339;0.016;-0.000;0.005;
20190905_113317;0.424;8.401;-5.559;0.018;-0.000;0.007;
20190905_113317;0.022;9.055;-5.327;-0.002;-0.000;0.003;
20190905_113317;-0.060;8.748;-5.705;0.038;0.007;0.001;
20190905_113317;0.036;8.554;-5.468;-0.002;-0.000;-0.004;
20190905_113317;0.261;8.660;-5.775;0.031;0.002;-0.004;
20190905_113317;0.227;8.851;-5.607;-0.003;0.002;-0.004;
20190905_113317;0.378;8.705;-5.715;0.014;-0.001;-0.007;
20190905_113317;0.409;8.825;-5.708;0.004;-0.001;-0.011;
20190905_113318;0.148;8.650;-5.492;-0.002;-0.005;-0.014;
20190905_113318;0.110;8.741;-5.741;0.016;-0.001;-0.014;
20190905_113318;0.261;9.033;-5.531;-0.006;-0.011;-0.017;
20190905_113318;0.278;8.657;-5.602;0.007;-0.008;-0.018;
20190905_113318;0.024;8.806;-5.643;-0.000;-0.003;-0.019;
20190905_113318;0.225;8.655;-5.574;-0.006;-0.009;-0.022;
20190905_113318;-0.077;8.717;-5.564;0.008;-0.007;-0.020;
20190905_113318;0.091;8.578;-5.555;-0.009;-0.006;-0.023;
20190905_113318;0.445;8.662;-5.705;0.014;-0.011;-0.021;
20190905_113319;0.124;8.803;-5.578;-0.004;-0.007;-0.021;
20190905_113319;0.192;8.715;-5.751;0.004;-0.007;-0.018;
20190905_113319;0.182;8.691;-5.562;-0.003;-0.011;-0.017;
20190905_113319;0.091;8.645;-5.540;-0.003;-0.007;-0.013;
20190905_113319;0.031;8.375;-5.526;-0.013;-0.007;-0.007;
20190905_113319;0.225;8.365;-5.387;0.002;-0.007;-0.003;
20190905_113319;0.347;8.406;-5.533;-0.008;-0.007;0.001;
20190905_113319;-0.227;8.351;-5.447;-0.008;0.002;0.003;
20190905_113319;-0.127;8.368;-5.471;-0.000;0.002;0.004;
20190905_113319;0.297;8.320;-5.411;-0.011;-0.001;0.010;
20190905_113320;0.340;8.226;-5.411;-0.002;-0.003;0.011;
20190905_113320;0.223;8.126;-5.351;-0.017;0.003;0.013;
20190905_113320;-0.036;8.121;-5.329;0.001;0.002;0.012;
20190905_113320;0.158;8.088;-5.303;-0.006;-0.001;0.014;
20190905_113320;0.280;8.236;-5.425;0.003;-0.003;0.013;
20190905_113320;0.192;8.147;-5.346;-0.013;-0.003;0.014;
20190905_113320;0.117;8.258;-5.420;0.008;0.003;0.012;
20190905_113320;0.093;8.255;-5.377;-0.009;-0.000;0.010;
20190905_113320;0.160;8.207;-5.473;0.005;-0.000;0.011;
20190905_113321;0.153;8.224;-5.375;-0.000;-0.002;0.011;
20190905_113321;0.302;8.428;-5.437;0.001;-0.001;0.012;
20190905_113321;0.215;7.705;-5.351;-0.003;-0.000;0.011;
20190905_113321;0.302;8.478;-5.239;-0.003;-0.006;0.009;
20190905_113321;0.448;8.226;-5.399;-0.002;-0.005;0.007;
20190905_113321;0.397;8.054;-5.298;0.008;-0.006;0.013;
20190905_113321;-0.086;8.001;-5.332;-0.001;0.006;0.009;
20190905_113321;0.371;8.107;-5.341;0.003;-0.000;0.007;
20190905_113321;0.644;8.155;-5.365;0.001;-0.006;0.011;
20190905_113321;0.445;8.157;-5.291;0.002;-0.007;0.011;
20190905_113322;0.017;7.980;-5.322;-0.001;0.002;0.015;
20190905_113322;0.084;8.262;-5.435;0.008;0.004;0.020;
20190905_113322;0.333;8.033;-5.416;-0.008;-0.001;0.020;
20190905_113322;0.460;8.181;-5.409;0.008;0.005;0.029;
20190905_113322;-0.017;8.174;-5.418;0.001;0.007;0.026;
20190905_113322;0.237;8.162;-5.320;0.005;0.005;0.029;
20190905_113322;0.359;8.195;-5.464;0.002;0.007;0.032;
20190905_113322;0.180;8.205;-5.392;-0.003;0.009;0.031;
20190905_113322;0.263;8.076;-5.447;0.002;0.011;0.029;
20190905_113323;0.357;8.313;-5.483;0.006;0.010;0.028;
20190905_113323;0.359;8.145;-5.294;-0.009;0.005;0.022;
20190905_113323;0.314;8.329;-5.485;0.011;0.007;0.018;
20190905_113323;0.362;8.071;-5.380;-0.012;0.004;0.015;
20190905_113323;0.417;8.193;-5.468;0.013;0.007;0.014;
20190905_113323;0.335;8.174;-5.351;-0.009;0.006;0.013;
20190905_113323;0.579;8.191;-5.488;0.006;0.006;0.011;
20190905_113323;0.280;8.282;-5.483;0.006;0.008;0.012;
20190905_113323;0.287;8.329;-5.423;-0.005;0.008;0.012;
20190905_113323;0.326;8.162;-5.509;0.005;0.006;0.011;
20190905_113324;0.414;8.272;-5.411;-0.000;0.007;0.013;
20190905_113324;0.290;8.370;-5.456;-0.005;0.005;0.007;
20190905_113324;0.321;8.109;-5.456;0.003;0.008;0.007;
20190905_113324;0.488;8.298;-5.473;0.001;0.005;0.006;
20190905_113324;0.290;8.279;-5.459;-0.000;0.009;0.005;
20190905_113324;0.266;8.260;-5.468;0.004;0.006;0.003;
20190905_113324;0.431;8.466;-5.574;0.006;0.005;0.000;
20190905_113324;0.376;8.334;-5.490;-0.013;0.003;-0.001;
20190905_113324;0.294;8.298;-5.507;0.008;0.006;-0.001;
20190905_113325;0.362;8.289;-5.485;-0.004;0.004;-0.001;
20190905_113325;0.103;8.176;-5.488;0.001;0.004;-0.002;
20190905_113325;-0.091;8.423;-5.538;0.008;0.011;0.001;
20190905_113325;0.206;8.401;-5.382;-0.015;0.003;-0.002;
20190905_113325;0.340;8.126;-5.576;-0.001;0.004;-0.001;
20190905_113325;0.230;8.325;-5.456;0.003;0.005;0.000;
20190905_113325;0.285;8.413;-5.413;-0.003;0.004;0.001;
20190905_113325;0.156;8.368;-5.442;-0.000;0.009;0.002;
20190905_113325;0.192;8.399;-5.399;-0.002;0.008;0.003;
20190905_113326;0.254;8.229;-5.392;-0.001;0.007;0.002;
20190905_113326;0.400;8.349;-5.444;0.005;0.006;0.004;
20190905_113326;0.366;8.375;-5.373;-0.009;0.003;0.004;
20190905_113326;0.170;8.425;-5.442;0.004;0.009;0.003;
20190905_113326;0.302;8.384;-5.413;-0.008;0.007;0.003;
20190905_113326;0.431;8.346;-5.454;0.004;0.004;0.002;
20190905_113326;0.299;8.272;-5.286;-0.009;0.003;0.002;
20190905_113326;0.153;8.282;-5.356;0.001;0.008;0.002;
20190905_113326;0.163;8.322;-5.373;-0.005;0.008;0.001;
20190905_113326;0.208;8.270;-5.193;-0.010;0.004;-0.001;
20190905_113327;0.359;8.061;-5.346;-0.002;0.002;-0.002;
20190905_113327;0.192;8.114;-5.341;-0.002;0.001;-0.002;
20190905_113327;0.316;8.090;-5.212;-0.003;0.004;-0.004;
20190905_113327;0.472;8.375;-5.423;0.011;0.006;-0.002;
20190905_113327;0.271;8.351;-5.183;-0.018;0.002;-0.005;
20190905_113327;0.323;8.246;-5.327;0.004;0.005;-0.003;
20190905_113327;0.314;8.248;-5.250;-0.006;0.003;-0.002;
20190905_113327;-0.115;8.131;-5.315;0.001;0.009;-0.002;
20190905_113327;0.249;8.229;-5.337;0.004;0.002;0.001;
20190905_113328;0.589;8.191;-5.267;-0.006;0.004;0.002;
20190905_113328;-0.005;8.052;-5.250;-0.002;0.007;0.000;
20190905_113328;0.110;8.169;-5.234;-0.008;0.007;-0.001;
20190905_113328;0.019;8.049;-5.205;-0.001;0.004;-0.003;
20190905_113328;0.508;7.966;-5.143;-0.013;-0.003;-0.008;
20190905_113328;0.153;8.064;-5.152;-0.010;-0.002;-0.011;
20190905_113328;0.000;7.918;-5.124;-0.016;0.002;-0.020;
20190905_113328;0.041;7.812;-5.040;-0.003;-0.005;-0.022;
20190905_113328;0.457;7.839;-5.088;-0.014;-0.006;-0.028;
20190905_113329;0.376;7.767;-5.057;-0.012;-0.007;-0.033;
20190905_113329;0.287;7.788;-5.004;-0.011;-0.007;-0.037;
20190905_113329;0.278;7.520;-5.001;-0.006;-0.008;-0.040;
20190905_113329;0.529;7.559;-5.028;-0.006;-0.010;-0.038;
20190905_113329;0.414;7.575;-4.939;-0.003;-0.011;-0.042;
20190905_113329;0.369;7.717;-5.057;0.001;-0.010;-0.042;
20190905_113329;0.177;7.788;-4.990;-0.003;-0.010;-0.043;
20190905_113329;0.335;7.755;-5.104;-0.012;-0.014;-0.042;
20190905_113329;0.409;7.822;-5.152;0.007;-0.007;-0.030;
20190905_113329;0.177;8.071;-5.148;-0.001;-0.008;-0.027;
20190905_113330;0.053;7.839;-5.126;-0.005;-0.003;-0.023;
20190905_113330;0.357;7.934;-5.107;0.002;-0.002;-0.018;
20190905_113330;0.362;8.140;-5.219;-0.004;-0.007;-0.014;
20190905_113330;0.290;7.772;-5.078;-0.010;0.001;-0.008;
20190905_113330;0.062;7.997;-5.138;0.003;0.005;-0.003;
20190905_113330;0.579;7.887;-5.195;0.001;0.001;0.000;
20190905_113330;0.373;8.071;-5.112;-0.009;0.001;0.001;
20190905_113330;0.232;8.116;-5.270;0.002;-0.000;0.002;
20190905_113330;-0.034;8.095;-5.255;-0.004;0.005;0.001;
20190905_113331;0.144;8.133;-5.267;-0.004;0.002;0.001;
20190905_113331;0.136;7.922;-5.152;-0.010;0.001;0.002;
20190905_113331;0.211;8.126;-5.344;0.004;0.002;0.002;
20190905_113331;0.084;8.049;-5.064;-0.029;0.001;0.000;
20190905_113331;0.077;7.896;-5.212;-0.002;-0.000;0.000;
20190905_113331;0.338;7.989;-5.215;-0.013;-0.002;0.000;
20190905_113331;0.043;8.016;-5.052;-0.019;-0.000;0.002;
20190905_113331;0.017;8.083;-5.298;0.001;0.004;0.004;
20190905_113331;0.045;7.999;-5.092;-0.026;0.002;0.003;
20190905_113331;0.117;7.702;-5.150;-0.014;-0.001;0.003;
20190905_113332;0.323;7.784;-5.104;-0.018;-0.006;0.002;
20190905_113332;0.014;7.678;-4.970;-0.014;0.001;0.002;
20190905_113332;0.304;7.561;-4.985;-0.015;-0.001;0.001;
20190905_113332;0.393;7.750;-4.990;-0.015;-0.002;0.002;
20190905_113332;-0.041;7.683;-4.920;-0.018;-0.001;0.001;
20190905_113332;0.024;7.393;-4.884;-0.013;0.003;0.000;
20190905_113332;0.292;7.408;-4.853;-0.018;-0.000;0.002;
20190905_113332;0.488;7.228;-4.772;-0.017;-0.005;0.001;
20190905_113332;0.395;7.240;-4.803;-0.014;-0.000;0.004;
20190905_113333;0.211;7.072;-4.736;-0.015;0.003;0.005;
20190905_113333;0.115;7.089;-4.678;-0.009;0.003;0.005;
20190905_113333;0.436;7.190;-4.724;-0.008;-0.003;0.004;
20190905_113333;0.551;7.161;-4.812;-0.001;-0.003;0.006;
20190905_113333;0.117;7.264;-4.827;0.001;0.001;0.007;
20190905_113333;-0.053;7.274;-4.841;0.003;-0.000;0.006;
20190905_113333;0.505;7.283;-4.867;0.005;-0.005;0.009;
20190905_113333;0.579;7.338;-4.870;0.008;-0.002;0.006;
20190905_113333;0.306;7.745;-5.021;0.008;0.002;0.006;
20190905_113333;0.168;7.470;-4.951;0.008;0.003;0.005;
20190905_113334;0.045;7.956;-5.088;0.019;0.007;0.005;
20190905_113334;0.292;7.827;-5.157;0.006;0.002;0.006;
20190905_113334;0.036;7.951;-5.353;0.020;0.005;0.009;
20190905_113334;0.180;8.492;-5.320;0.016;0.004;0.013;
20190905_113334;0.302;8.305;-5.432;0.007;0.004;0.014;
20190905_113334;0.244;8.626;-5.511;0.014;0.006;0.016;
20190905_113334;-0.038;8.820;-5.502;0.002;0.006;0.015;
20190905_113334;0.002;8.607;-5.449;-0.002;0.008;0.014;
20190905_113334;0.182;8.593;-5.552;0.007;0.008;0.013;
20190905_113335;0.273;8.602;-5.437;-0.001;0.005;0.013;
20190905_113335;-0.177;8.394;-5.473;-0.005;0.006;0.011;
20190905_113335;-0.069;8.435;-5.349;-0.004;0.005;0.007;
20190905_113335;0.316;8.543;-5.571;0.004;0.002;0.005;
20190905_113335;0.278;8.521;-5.303;-0.015;0.001;0.004;
20190905_113335;-0.057;8.435;-5.499;0.004;0.001;0.001;
20190905_113335;0.232;8.413;-5.442;-0.015;-0.002;0.000;
20190905_113335;0.395;8.459;-5.523;-0.005;-0.002;0.000;
20190905_113335;-0.010;8.305;-5.409;-0.006;-0.000;-0.005;
20190905_113336;-0.103;8.396;-5.471;-0.003;-0.001;-0.007;
20190905_113336;0.072;8.368;-5.289;-0.017;-0.006;-0.008;
20190905_113336;0.326;8.291;-5.480;0.001;-0.007;-0.012;
20190905_113336;0.393;8.471;-5.279;-0.005;-0.007;-0.010;
20190905_113336;0.302;8.298;-5.461;-0.013;-0.009;-0.017;
20190905_113336;0.239;8.162;-5.131;-0.021;-0.008;-0.016;
20190905_113336;0.306;8.212;-5.442;0.002;-0.013;-0.016;
20190905_113336;0.206;8.030;-5.183;-0.024;-0.014;-0.019;
20190905_113336;0.242;7.932;-5.236;-0.004;-0.011;-0.017;
20190905_113336;0.165;8.188;-5.272;-0.012;-0.009;-0.012;
20190905_113337;0.297;7.717;-4.997;-0.025;-0.010;-0.012;
20190905_113337;0.215;7.875;-5.243;0.002;-0.005;-0.004;
20190905_113337;0.227;7.788;-5.109;-0.019;-0.007;-0.004;
20190905_113337;0.347;7.728;-5.013;-0.010;-0.006;-0.004;
20190905_113337;0.452;7.705;-4.997;-0.016;-0.009;-0.001;
20190905_113337;0.101;7.487;-5.047;-0.009;-0.005;-0.004;
20190905_113337;0.242;7.623;-4.944;-0.012;-0.003;-0.001;
20190905_113337;0.326;7.693;-4.951;-0.011;-0.005;-0.004;
20190905_113337;0.388;7.470;-4.884;-0.013;-0.007;-0.003;
20190905_113338;0.165;7.539;-4.932;-0.004;-0.003;-0.003;
20190905_113338;0.321;7.673;-4.903;-0.009;-0.003;-0.002;
20190905_113338;0.139;7.511;-4.932;-0.011;-0.006;-0.002;
20190905_113338;-0.117;7.523;-4.879;-0.000;0.001;0.001;
20190905_113338;0.213;7.721;-5.047;-0.008;-0.006;-0.002;
20190905_113338;0.438;7.661;-4.992;0.001;-0.003;0.000;
20190905_113338;0.268;7.738;-4.932;-0.001;-0.002;0.001;
20190905_113338;0.206;7.939;-5.143;0.004;-0.002;0.001;
20190905_113338;0.326;7.728;-4.975;-0.012;-0.003;0.000;
20190905_113338;0.290;7.884;-5.160;0.013;0.002;0.005;
20190905_113339;0.235;7.848;-5.040;-0.002;-0.000;0.002;
20190905_113339;0.486;8.018;-5.124;0.001;-0.002;0.003;
20190905_113339;0.089;8.030;-5.224;0.008;0.002;0.003;
20190905_113339;0.304;8.059;-5.133;-0.008;-0.002;0.001;
20190905_113339;0.156;8.078;-5.310;0.011;0.002;0.003;
20190905_113339;0.409;7.961;-5.126;-0.010;-0.001;0.007;
20190905_113339;0.208;8.236;-5.279;0.021;0.001;0.007;
20190905_113339;0.163;8.092;-5.183;-0.011;-0.000;0.007;
20190905_113339;-0.069;8.131;-5.327;0.018;0.006;0.006;
20190905_113340;0.316;8.308;-5.327;-0.001;0.004;0.009;
20190905_113340;0.503;8.377;-5.329;0.005;0.002;0.011;
20190905_113340;0.007;8.602;-5.464;0.011;0.004;0.009;
20190905_113340;0.378;8.428;-5.373;-0.001;-0.002;0.003;
20190905_113340;0.029;8.523;-5.437;0.005;0.001;0.000;
20190905_113340;0.201;8.722;-5.631;0.007;0.001;-0.003;
20190905_113340;0.486;8.645;-5.420;-0.004;-0.006;-0.007;
20190905_113340;0.170;8.552;-5.497;0.007;-0.005;-0.005;
20190905_113340;0.232;8.686;-5.442;-0.000;-0.005;-0.008;
20190905_113341;0.151;8.662;-5.423;-0.006;-0.007;-0.011;
20190905_113341;0.316;8.365;-5.516;0.007;-0.006;-0.008;
20190905_113341;0.199;8.830;-5.483;-0.000;-0.008;-0.007;
20190905_113341;0.062;8.559;-5.557;-0.000;-0.002;-0.003;
20190905_113341;0.390;8.777;-5.533;0.007;-0.006;0.002;
20190905_113341;0.069;8.748;-5.397;-0.010;-0.006;-0.002;
20190905_113341;-0.010;8.464;-5.497;0.005;-0.001;0.003;
20190905_113341;0.419;8.416;-5.337;-0.009;-0.005;0.007;
20190905_113341;0.139;8.440;-5.411;-0.003;-0.000;0.009;
20190905_113341;0.055;8.143;-5.303;-0.011;0.002;0.010;
20190905_113342;0.268;8.255;-5.444;0.011;0.006;0.015;
20190905_113342;0.385;8.507;-5.444;-0.010;-0.000;0.016;
20190905_113342;0.220;8.420;-5.385;0.003;0.006;0.017;
20190905_113342;0.261;8.710;-5.555;0.003;0.003;0.015;
20190905_113342;0.385;8.499;-5.430;-0.014;0.002;0.014;
20190905_113342;0.338;8.686;-5.598;0.014;0.004;0.013;
20190905_113342;0.536;8.519;-5.437;-0.011;-0.005;0.007;
20190905_113342;0.424;8.487;-5.557;0.009;-0.000;0.007;
20190905_113342;0.452;9.036;-5.605;0.003;-0.002;0.006;
20190905_113343;0.134;8.794;-5.538;-0.013;-0.002;-0.001;
20190905_113343;0.484;8.698;-5.562;0.005;-0.000;-0.003;
20190905_113343;0.304;8.815;-5.545;-0.004;-0.003;-0.005;
20190905_113343;0.350;8.847;-5.499;-0.008;-0.001;-0.005;
20190905_113343;0.424;8.796;-5.622;0.003;-0.005;-0.005;
20190905_113343;0.259;8.775;-5.562;-0.016;-0.001;-0.007;
20190905_113343;0.302;8.672;-5.452;-0.005;-0.001;-0.007;
20190905_113343;0.376;8.650;-5.502;-0.013;-0.006;-0.010;
20190905_113343;0.259;8.253;-5.215;-0.019;-0.002;-0.005;
20190905_113343;0.266;8.435;-5.399;-0.009;0.001;-0.003;
20190905_113344;0.177;8.243;-5.176;-0.024;-0.001;-0.002;
20190905_113344;0.412;8.250;-5.231;-0.015;-0.001;-0.001;
20190905_113344;0.311;7.901;-5.121;-0.027;0.002;0.000;
20190905_113344;0.163;8.159;-5.217;-0.004;0.004;0.002;
20190905_113344;0.067;7.817;-4.934;-0.040;0.003;0.001;
20190905_113344;0.218;7.772;-5.138;-0.000;0.006;0.007;
20190905_113344;0.215;7.731;-4.877;-0.029;0.008;0.011;
20190905_113344;0.168;7.441;-4.915;-0.010;0.006;0.013;
20190905_113344;0.326;7.606;-4.894;-0.003;0.007;0.015;
20190905_113345;0.108;7.664;-4.949;-0.011;0.008;0.014;
20190905_113345;0.273;7.580;-4.978;-0.008;0.008;0.015;
20190905_113345;0.297;7.882;-4.918;-0.001;0.007;0.014;
20190905_113345;0.084;7.743;-4.796;-0.016;0.008;0.013;
20190905_113345;0.472;7.573;-5.006;0.006;0.004;0.013;
20190905_113345;0.060;7.855;-4.970;-0.001;0.007;0.010;
20190905_113345;-0.048;7.671;-4.966;-0.006;0.006;0.011;
20190905_113345;0.180;8.226;-5.145;0.019;0.001;0.011;
20190905_113345;0.153;8.006;-5.061;-0.022;-0.001;0.006;
20190905_113345;0.132;8.212;-5.203;0.017;0.002;0.006;
20190905_113346;0.086;8.200;-5.037;-0.014;-0.002;-0.003;
20190905_113346;0.297;8.071;-5.080;0.002;-0.005;-0.005;
20190905_113346;0.251;7.839;-5.025;-0.008;-0.007;-0.011;
20190905_113346;0.378;7.827;-4.978;-0.002;-0.007;-0.010;
20190905_113346;0.464;7.925;-5.073;0.006;-0.008;-0.011;
20190905_113346;0.278;7.891;-4.774;-0.027;-0.012;-0.011;
20190905_113346;0.074;7.602;-5.006;0.015;-0.005;-0.010;
20190905_113346;0.151;7.697;-4.836;-0.016;-0.009;-0.012;
20190905_113346;0.311;7.772;-4.937;0.011;-0.008;-0.010;
20190905_113347;0.220;7.554;-4.954;-0.013;-0.008;-0.007;
20190905_113347;0.129;7.925;-5.013;0.013;-0.000;0.002;
20190905_113347;0.057;8.126;-5.107;-0.005;-0.000;0.006;
20190905_113347;0.342;8.100;-5.049;0.003;0.001;0.011;
20190905_113347;0.235;8.368;-5.152;-0.003;0.004;0.017;
20190905_113347;0.220;8.361;-5.109;0.004;0.004;0.017;
20190905_113347;0.086;8.282;-5.090;-0.004;0.006;0.021;
20190905_113347;0.350;8.389;-5.124;0.004;0.008;0.029;
20190905_113347;0.242;8.325;-5.119;-0.002;0.009;0.030;
20190905_113347;-0.091;8.401;-5.150;-0.004;0.013;0.032;
20190905_113348;0.163;8.303;-5.095;-0.003;0.010;0.029;
20190905_113348;0.194;8.605;-5.239;0.001;0.009;0.030;
20190905_113348;0.184;8.262;-5.071;-0.025;0.007;0.025;
20190905_113348;0.084;8.150;-5.102;0.003;0.013;0.027;
20190905_113348;0.268;8.262;-5.097;-0.024;0.007;0.018;
20190905_113348;0.127;8.143;-4.994;-0.009;0.009;0.018;
20190905_113348;0.309;8.174;-4.985;-0.017;0.003;0.015;
20190905_113348;0.342;8.191;-5.138;0.002;0.001;0.013;
20190905_113348;0.074;7.982;-4.834;-0.026;0.008;0.017;
20190905_113349;0.201;8.066;-5.195;0.006;0.008;0.013;
20190905_113349;0.290;8.145;-4.934;-0.026;0.003;0.012;
20190905_113349;0.254;8.064;-5.059;0.007;0.006;0.011;
20190905_113349;0.069;8.179;-5.030;-0.018;-0.000;0.004;
20190905_113349;0.244;8.382;-5.107;-0.003;0.004;0.004;
20190905_113349;0.187;8.444;-5.248;-0.006;0.001;0.000;
20190905_113349;0.182;8.545;-5.016;-0.017;-0.002;-0.001;
20190905_113349;0.462;8.289;-5.203;-0.004;-0.002;-0.001;
20190905_113349;0.405;8.049;-4.858;-0.015;-0.003;-0.002;
20190905_113349;0.354;8.442;-5.107;-0.003;0.001;-0.002;
20190905_113350;0.187;7.877;-4.788;-0.038;-0.006;-0.007;
20190905_113350;0.457;7.882;-4.879;0.002;-0.001;0.000;
20190905_113350;0.074;7.736;-4.738;-0.026;-0.000;0.000;
20190905_113350;0.184;7.535;-4.630;-0.026;-0.001;0.001;
20190905_113350;0.057;7.661;-4.843;-0.004;0.003;0.002;
20190905_113350;0.230;7.604;-4.578;-0.027;-0.002;0.000;
20190905_113350;0.091;7.379;-4.693;-0.015;-0.001;-0.001;
20190905_113350;0.247;7.491;-4.721;-0.017;-0.003;-0.002;
20190905_113350;0.249;7.523;-4.743;-0.012;-0.005;-0.007;
20190905_113351;0.192;7.709;-4.736;-0.018;-0.005;-0.008;
20190905_113351;0.247;7.697;-4.745;-0.003;-0.006;-0.010;
20190905_113351;0.259;7.412;-4.630;-0.022;-0.007;-0.008;
20190905_113351;0.172;7.286;-4.635;0.001;-0.003;-0.010;
20190905_113351;0.326;7.230;-4.506;-0.013;-0.005;-0.012;
20190905_113351;0.263;7.183;-4.690;0.006;-0.005;-0.013;
20190905_113351;0.204;7.439;-4.523;-0.009;-0.003;-0.011;
20190905_113351;0.182;7.597;-4.762;0.016;-0.005;-0.012;
20190905_113351;-0.105;7.707;-4.597;-0.009;-0.006;-0.016;
20190905_113352;0.057;7.846;-4.757;0.012;-0.003;-0.015;
20190905_113352;0.158;7.597;-4.697;-0.001;-0.010;-0.018;
20190905_113352;0.187;8.052;-4.922;0.018;-0.003;-0.012;
20190905_113352;0.012;8.011;-4.882;-0.000;-0.007;-0.013;
20190905_113352;-0.062;7.937;-4.915;0.009;-0.002;-0.008;
20190905_113352;0.268;8.384;-5.116;0.019;-0.003;-0.007;
20190905_113352;0.086;8.708;-5.243;0.006;-0.002;-0.011;
20190905_113352;0.132;8.629;-5.286;0.002;-0.002;-0.010;
20190905_113352;0.089;9.352;-5.411;0.030;-0.000;0.003;
20190905_113352;0.484;9.194;-5.626;-0.003;-0.005;-0.003;
20190905_113353;0.172;9.191;-5.562;0.008;-0.000;0.004;
20190905_113353;0.383;9.934;-5.863;0.029;0.003;0.007;
20190905_113353;0.060;9.512;-5.710;-0.011;0.001;0.003;
20190905_113353;0.204;9.673;-5.844;0.021;0.005;0.014;
20190905_113353;0.151;9.907;-5.921;-0.000;0.001;0.010;
20190905_113353;0.196;9.754;-5.763;-0.004;0.005;0.012;
20190905_113353;0.060;9.673;-5.875;-0.001;0.006;0.012;
20190905_113353;0.402;9.459;-5.672;-0.013;-0.000;0.005;
20190905_113353;0.141;9.323;-5.794;0.002;0.001;0.001;
20190905_113353;0.290;9.249;-5.490;-0.031;0.001;-0.004;
20190905_113354;0.014;9.014;-5.495;0.001;-0.000;-0.014;
20190905_113354;0.120;8.760;-5.303;-0.020;-0.010;-0.019;
20190905_113354;0.323;8.703;-5.270;-0.005;-0.011;-0.028;
20190905_113354;0.206;8.547;-5.145;-0.017;-0.017;-0.036;
20190905_113354;0.259;8.229;-5.025;-0.011;-0.014;-0.039;
20190905_113354;0.132;8.262;-5.061;-0.003;-0.014;-0.039;
20190905_113354;0.196;8.013;-4.875;-0.021;-0.021;-0.042;
20190905_113354;-0.014;7.939;-4.848;-0.003;-0.016;-0.043;
20190905_113354;-0.048;8.126;-4.920;-0.002;-0.015;-0.040;
20190905_113355;0.103;7.906;-4.831;-0.013;-0.019;-0.038;
20190905_113355;0.366;8.090;-4.889;0.007;-0.021;-0.029;
20190905_113355;-0.093;8.203;-4.875;-0.009;-0.014;-0.024;
20190905_113355;0.091;8.059;-4.956;0.004;-0.014;-0.022;
20190905_113355;0.199;8.076;-4.769;0.008;-0.012;-0.014;
20190905_113355;0.201;8.557;-5.250;0.025;-0.010;-0.013;
20190905_113355;0.244;8.305;-5.064;0.001;-0.012;-0.010;
20190905_113355;-0.091;8.794;-5.181;0.023;-0.005;-0.001;
20190905_113355;0.055;8.964;-5.454;0.023;-0.000;0.001;
20190905_113355;0.448;9.177;-5.538;0.017;-0.011;0.002;
20190905_113356;-0.177;9.610;-5.646;0.028;-0.000;0.013;
20190905_113356;-0.110;9.632;-5.622;0.004;0.005;0.013;
20190905_113356;0.479;9.572;-5.569;0.013;-0.001;0.021;
20190905_113356;0.479;9.589;-5.658;0.008;0.007;0.029;
20190905_113356;0.244;9.115;-5.409;-0.003;0.005;0.028;
20190905_113356;0.436;9.232;-5.492;0.011;0.006;0.031;
20190905_113356;-0.017;9.266;-5.387;-0.002;0.008;0.033;
20190905_113356;0.275;9.163;-5.447;-0.003;0.005;0.033;
20190905_113356;0.529;9.134;-5.318;0.002;0.007;0.034;
20190905_113357;0.014;9.086;-5.499;0.002;0.013;0.033;
20190905_113357;0.120;8.997;-5.267;-0.009;0.007;0.026;
20190905_113357;0.615;8.835;-5.356;0.011;0.004;0.028;
20190905_113357;0.316;9.026;-5.260;-0.004;0.007;0.020;
20190905_113357;0.407;9.234;-5.545;0.013;0.009;0.022;
20190905_113357;0.326;9.134;-5.262;-0.014;0.007;0.017;
20190905_113357;0.488;9.582;-5.636;0.020;0.003;0.014;
20190905_113357;0.388;9.380;-5.507;-0.014;0.002;0.009;
20190905_113357;0.141;9.318;-5.480;0.003;0.005;0.007;
20190905_113358;0.187;9.428;-5.432;-0.003;0.005;0.011;
20190905_113358;0.206;8.959;-5.210;-0.015;0.003;0.007;
20190905_113358;0.455;9.081;-5.389;0.006;0.003;0.010;
20190905_113358;0.213;9.029;-5.243;-0.020;0.004;0.009;
20190905_113358;0.098;8.847;-5.205;-0.001;0.004;0.012;
20190905_113358;0.290;8.861;-5.318;-0.001;0.005;0.017;
20190905_113358;0.113;8.950;-5.179;-0.008;0.002;0.016;
20190905_113358;0.065;8.705;-5.260;0.002;0.008;0.013;
20190905_113358;0.117;8.799;-5.181;-0.003;0.007;0.012;
20190905_113359;0.407;9.057;-5.260;-0.008;-0.001;0.006;
20190905_113359;0.333;8.708;-5.179;-0.008;-0.000;0.004;
20190905_113359;0.208;8.842;-5.210;0.001;-0.000;0.000;
20190905_113359;0.213;8.612;-5.100;-0.011;-0.001;0.001;
20190905_113359;0.395;8.511;-5.028;-0.004;-0.003;0.000;
20190905_113359;0.373;8.703;-5.152;0.005;-0.002;0.000;
20190905_113359;0.132;8.523;-5.052;-0.012;-0.003;-0.002;
20190905_113359;-0.091;8.693;-5.025;-0.001;-0.000;-0.001;
20190905_113359;-0.022;8.657;-5.066;-0.000;0.001;-0.002;
20190905_113359;0.285;8.387;-4.946;-0.010;-0.005;-0.002;
20190905_113400;0.637;8.732;-5.001;0.011;-0.001;0.003;
20190905_113400;0.034;8.653;-4.934;-0.017;-0.003;-0.002;
20190905_113400;0.110;8.404;-5.045;0.002;-0.005;-0.006;
20190905_113400;0.512;8.825;-4.975;0.009;-0.006;-0.005;
20190905_113400;0.074;8.756;-5.188;-0.003;-0.005;-0.011;
20190905_113400;0.050;8.892;-4.997;-0.000;-0.005;-0.007;
20190905_113400;0.113;8.930;-5.224;-0.000;-0.006;-0.010;
20190905_113400;0.227;8.803;-5.054;-0.004;-0.007;-0.010;
20190905_113400;-0.026;8.772;-5.028;-0.001;-0.001;-0.006;
20190905_113401;0.096;8.686;-5.121;0.007;-0.002;-0.005;
20190905_113401;0.292;8.890;-4.990;-0.013;-0.010;-0.004;
20190905_113401;0.254;8.679;-5.133;0.006;-0.007;-0.002;
20190905_113401;-0.194;8.724;-5.128;0.006;-0.001;-0.002;
20190905_113401;0.002;9.067;-5.116;-0.002;-0.002;-0.001;
20190905_113401;0.165;8.758;-5.078;-0.009;-0.006;0.000;
20190905_113401;0.062;8.890;-5.085;0.009;-0.000;0.006;
20190905_113401;0.038;8.820;-5.033;-0.014;-0.003;0.000;
20190905_113401;0.146;8.633;-4.958;0.004;-0.003;0.005;
20190905_113401;0.204;8.760;-5.054;-0.002;-0.007;0.005;
20190905_113402;0.031;8.710;-5.021;-0.002;-0.000;0.007;
20190905_113402;0.266;8.909;-5.076;0.006;0.001;0.013;
20190905_113402;0.211;8.820;-5.061;-0.006;-0.003;0.011;
20190905_113402;0.182;8.744;-4.980;0.004;0.002;0.013;
20190905_113402;0.182;8.703;-5.064;-0.002;-0.002;0.010;
20190905_113402;0.345;8.780;-5.004;0.007;-0.002;0.011;
20190905_113402;0.328;8.545;-4.987;-0.006;-0.003;0.007;
20190905_113402;0.263;8.835;-5.112;0.012;-0.001;0.006;
20190905_113402;0.488;8.916;-5.109;0.001;-0.006;0.004;
20190905_113403;0.419;8.926;-5.018;0.012;-0.005;0.002;
