Timestamp;Accel_x;Accel_y;Accel_z;Gyro_x;Gyro_y;Gyro_z;
20190925_050211;0.311;9.345;-2.222;-0.001;-0.010;0.001;
20190925_050211;0.302;9.318;-2.229;-0.005;-0.009;0.001;
20190925_050211;0.287;9.352;-2.179;0.001;-0.011;0.001;
20190925_050212;0.280;9.335;-2.138;-0.003;-0.009;0.001;
20190925_050212;0.350;9.345;-2.219;-0.001;-0.009;0.001;
20190925_050212;0.318;9.412;-2.219;-0.005;-0.012;-0.002;
20190925_050212;0.304;9.369;-2.186;-0.004;-0.011;0.001;
20190925_050212;0.290;9.412;-2.191;-0.004;-0.008;0.004;
20190925_050212;0.189;9.424;-2.188;0.002;-0.010;0.001;
20190925_050212;0.275;9.409;-2.215;-0.001;0.001;-0.000;
20190925_050212;0.278;9.404;-2.198;0.004;0.001;0.001;
20190925_050212;0.261;9.450;-2.239;-0.000;0.002;0.001;
20190925_050213;0.251;9.414;-2.219;-0.000;0.001;-0.000;
20190925_050213;0.285;9.397;-2.157;-0.000;0.001;0.001;
20190925_050213;0.225;9.390;-2.222;-0.000;0.004;0.003;
20190925_050213;0.268;9.414;-2.229;0.003;0.001;0.001;
20190925_050213;0.309;9.323;-2.219;-0.001;0.001;0.001;
20190925_050213;0.285;9.345;-2.179;-0.001;0.000;-0.000;
20190925_050213;0.249;9.318;-2.207;-0.002;0.002;0.001;
20190925_050213;0.283;9.349;-2.203;-0.001;0.003;0.002;
20190925_050213;0.302;9.309;-2.217;-0.001;0.002;0.003;
20190925_050213;0.311;9.383;-2.207;-0.003;0.001;0.002;
20190925_050214;0.263;9.301;-2.234;-0.000;0.002;0.002;
20190925_050214;0.242;9.364;-2.239;-0.000;0.001;0.001;
20190925_050214;0.244;9.311;-2.210;-0.002;0.000;0.002;
20190925_050214;0.268;9.388;-2.255;0.002;0.000;0.001;
20190925_050214;0.275;9.325;-2.270;-0.000;0.001;-0.000;
20190925_050214;0.271;9.412;-2.241;-0.001;0.000;0.001;
20190925_050214;0.302;9.380;-2.227;0.002;0.000;0.002;
20190925_050214;0.261;9.443;-2.294;-0.000;0.001;-0.000;
20190925_050214;0.271;9.392;-2.282;-0.001;0.002;-0.000;
20190925_050214;0.254;9.395;-2.215;-0.002;0.001;0.001;
20190925_050215;0.350;9.474;-2.318;0.001;0.002;-0.000;
20190925_050215;0.263;9.414;-2.222;0.002;0.002;0.001;
20190925_050215;0.244;9.433;-2.241;-0.002;0.001;0.001;
20190925_050215;0.271;9.409;-2.263;-0.000;0.000;-0.000;
20190925_050215;0.256;9.440;-2.279;-0.002;-0.001;-0.000;
20190925_050215;0.268;9.402;-2.234;-0.000;0.000;-0.000;
20190925_050215;0.292;9.392;-2.229;-0.002;-0.001;-0.001;
20190925_050215;0.280;9.383;-2.239;-0.000;0.000;-0.000;
20190925_050215;0.330;9.383;-2.251;-0.001;0.000;0.001;
20190925_050215;0.278;9.371;-2.181;0.002;-0.001;-0.002;
20190925_050216;0.321;9.328;-2.042;-0.002;-0.002;0.001;
20190925_050216;0.378;9.318;-2.157;0.002;0.000;-0.000;
20190925_050216;0.254;9.337;-2.284;0.001;0.001;-0.003;
20190925_050216;0.232;9.364;-2.219;0.001;0.000;-0.002;
20190925_050216;0.251;9.321;-2.184;-0.000;-0.001;-0.001;
20190925_050216;0.268;9.342;-2.251;-0.002;-0.001;-0.002;
20190925_050216;0.251;9.359;-2.179;-0.001;-0.002;-0.002;
20190925_050216;0.316;9.330;-2.241;0.001;-0.002;-0.002;
20190925_050216;0.302;9.347;-2.179;0.001;-0.002;-0.002;
20190925_050217;0.333;9.342;-2.198;0.001;-0.001;-0.000;
20190925_050217;0.283;9.380;-2.198;0.004;0.001;-0.000;
20190925_050217;0.292;9.400;-2.195;0.002;-0.001;-0.000;
20190925_050217;0.235;9.388;-2.234;0.004;0.001;-0.000;
20190925_050217;0.316;9.369;-2.231;0.004;-0.001;0.001;
20190925_050217;0.287;9.445;-2.200;0.001;-0.001;-0.002;
20190925_050217;0.306;9.436;-2.219;-0.001;0.001;0.001;
20190925_050217;0.280;9.402;-2.198;0.002;-0.001;0.001;
20190925_050217;0.283;9.450;-2.229;0.001;0.002;0.002;
20190925_050218;0.304;9.412;-2.258;-0.000;-0.002;0.001;
20190925_050218;0.254;9.426;-2.205;-0.002;0.001;-0.000;
20190925_050218;0.254;9.464;-2.224;0.001;0.002;0.002;
20190925_050218;0.287;9.479;-2.231;0.002;0.002;0.003;
20190925_050218;0.275;9.459;-2.227;-0.000;0.001;0.002;
20190925_050218;0.302;9.385;-2.217;0.003;0.002;0.004;
20190925_050218;0.271;9.440;-2.229;0.002;0.001;0.002;
20190925_050218;0.266;9.407;-2.210;-0.002;-0.001;0.002;
20190925_050218;0.266;9.385;-2.224;0.001;0.001;0.003;
20190925_050219;0.263;9.440;-2.251;0.001;-0.001;0.002;
20190925_050219;0.287;9.404;-2.255;-0.002;-0.001;0.001;
20190925_050219;0.285;9.395;-2.236;-0.004;0.001;0.003;
20190925_050219;0.227;9.392;-2.212;0.003;0.003;0.002;
20190925_050219;0.244;9.407;-2.241;0.003;0.002;0.003;
20190925_050219;0.251;9.397;-2.229;-0.000;0.001;0.001;
20190925_050219;0.244;9.378;-2.217;0.001;0.001;0.002;
20190925_050219;0.218;9.373;-2.239;-0.000;0.002;0.002;
20190925_050219;0.230;9.352;-2.198;0.001;0.001;0.003;
20190925_050219;0.227;9.376;-2.212;0.002;0.001;0.002;
20190925_050220;0.218;9.383;-2.217;-0.002;-0.001;0.001;
20190925_050220;0.196;9.388;-2.217;0.001;-0.001;0.001;
20190925_050220;0.220;9.373;-2.212;0.002;0.001;0.001;
20190925_050220;0.235;9.354;-2.203;0.002;-0.002;0.002;
20190925_050220;0.259;9.366;-2.191;-0.000;-0.002;0.001;
20190925_050220;0.239;9.378;-2.229;-0.001;-0.002;0.001;
20190925_050220;0.237;9.400;-2.205;-0.001;-0.003;-0.000;
20190925_050220;0.287;9.366;-2.241;-0.000;-0.001;0.001;
20190925_050220;0.299;9.371;-2.191;-0.000;-0.003;-0.003;
20190925_050221;0.280;9.392;-2.188;-0.000;-0.002;-0.003;
20190925_050221;0.278;9.333;-2.212;0.001;-0.002;-0.003;
20190925_050221;0.366;9.352;-2.243;-0.001;-0.002;-0.003;
20190925_050221;0.294;9.306;-2.188;0.001;-0.002;-0.005;
20190925_050221;0.314;9.395;-2.200;-0.001;-0.002;-0.004;
20190925_050221;0.278;9.383;-2.248;-0.000;-0.003;-0.005;
20190925_050221;0.314;9.313;-2.260;-0.002;-0.004;-0.005;
20190925_050221;0.318;9.318;-2.179;0.003;-0.001;-0.003;
20190925_050221;0.302;9.364;-2.205;0.004;-0.001;-0.001;
20190925_050222;0.297;9.385;-2.234;-0.000;-0.002;-0.003;
20190925_050222;0.347;9.333;-2.186;-0.002;0.000;-0.001;
20190925_050222;0.352;9.352;-2.241;0.002;-0.001;-0.002;
20190925_050222;0.318;9.369;-2.234;0.001;0.000;-0.002;
20190925_050222;0.309;9.304;-2.224;-0.000;-0.001;0.001;
20190925_050222;0.294;9.354;-2.184;-0.001;-0.001;-0.003;
20190925_050222;0.299;9.347;-2.191;-0.001;-0.001;-0.002;
20190925_050222;0.338;9.349;-2.164;0.002;0.000;-0.001;
20190925_050222;0.299;9.318;-2.203;-0.000;0.001;0.001;
20190925_050222;0.352;9.361;-2.277;0.004;0.000;0.001;
20190925_050223;0.357;9.357;-2.246;-0.000;0.001;0.001;
20190925_050223;0.294;9.342;-2.205;0.002;0.002;-0.001;
20190925_050223;0.254;9.328;-2.195;-0.001;0.000;0.001;
20190925_050223;0.263;9.337;-2.207;-0.000;-0.001;0.001;
20190925_050223;0.268;9.361;-2.265;-0.000;0.002;-0.001;
20190925_050223;0.237;9.388;-2.222;0.001;0.001;0.002;
20190925_050223;0.259;9.359;-2.236;-0.000;0.001;0.001;
20190925_050223;0.280;9.369;-2.217;-0.001;0.000;0.002;
20190925_050223;0.278;9.364;-2.188;0.002;0.001;0.002;
20190925_050223;0.211;9.376;-2.246;0.003;0.002;0.002;
20190925_050224;0.220;9.359;-2.243;0.001;0.003;0.004;
20190925_050224;0.237;9.383;-2.186;0.002;0.000;0.004;
20190925_050224;0.254;9.313;-2.253;0.001;0.001;0.003;
20190925_050224;0.268;9.340;-2.203;-0.000;0.002;0.003;
20190925_050224;0.254;9.383;-2.222;0.001;0.001;0.003;
20190925_050224;0.249;9.328;-2.243;-0.000;0.000;0.002;
20190925_050224;0.230;9.352;-2.246;-0.000;0.002;0.002;
20190925_050224;0.242;9.352;-2.246;0.001;0.001;0.002;
20190925_050224;0.230;9.369;-2.219;-0.001;0.000;0.001;
20190925_050225;0.263;9.349;-2.224;0.002;-0.001;0.001;
20190925_050225;0.225;9.342;-2.210;0.001;0.000;-0.001;
20190925_050225;0.278;9.409;-2.193;0.002;0.000;-0.001;
20190925_050225;0.220;9.378;-2.167;-0.002;-0.001;-0.002;
20190925_050225;0.215;9.371;-2.277;-0.001;0.000;-0.001;
20190925_050225;0.232;9.385;-2.239;-0.002;-0.001;-0.002;
20190925_050225;0.261;9.359;-2.222;-0.000;-0.001;0.001;
20190925_050225;0.263;9.309;-2.212;0.001;0.000;-0.001;
20190925_050225;0.199;9.364;-2.160;-0.001;-0.001;-0.001;
20190925_050226;0.223;9.328;-2.239;-0.001;-0.001;-0.002;
20190925_050226;0.285;9.306;-2.246;0.001;-0.001;-0.001;
20190925_050226;0.271;9.335;-2.162;0.001;0.000;-0.001;
20190925_050226;0.266;9.323;-2.193;-0.000;0.001;-0.003;
20190925_050226;0.259;9.325;-2.217;0.001;0.000;-0.002;
20190925_050226;0.235;9.325;-2.186;-0.002;-0.003;-0.002;
20190925_050226;0.299;9.323;-2.215;-0.001;-0.002;-0.001;
20190925_050226;0.230;9.309;-2.224;-0.000;-0.001;-0.002;
20190925_050226;0.254;9.354;-2.212;-0.000;-0.000;-0.001;
20190925_050227;0.302;9.318;-2.239;-0.001;-0.000;-0.002;
20190925_050227;0.268;9.333;-2.212;-0.000;-0.000;-0.002;
20190925_050227;0.297;9.337;-2.174;0.001;-0.000;-0.002;
20190925_050227;0.271;9.321;-2.227;-0.000;-0.001;-0.003;
20190925_050227;0.271;9.304;-2.246;-0.002;-0.002;-0.001;
20190925_050227;0.278;9.323;-2.174;-0.000;-0.000;-0.002;
20190925_050227;0.239;9.306;-2.198;-0.000;-0.001;-0.001;
20190925_050227;0.242;9.316;-2.219;0.001;0.002;-0.002;
20190925_050227;0.249;9.347;-2.222;0.002;0.001;-0.000;
20190925_050228;0.251;9.349;-2.210;-0.001;-0.001;-0.001;
20190925_050228;0.283;9.297;-2.231;-0.000;-0.001;-0.001;
20190925_050228;0.266;9.323;-2.203;-0.000;-0.000;-0.000;
20190925_050228;0.304;9.268;-2.203;0.002;0.001;-0.001;
20190925_050228;0.316;9.328;-2.193;0.001;0.002;-0.000;
20190925_050228;0.275;9.266;-2.263;0.001;-0.001;-0.001;
20190925_050228;0.160;9.321;-2.172;0.002;-0.000;-0.001;
20190925_050228;0.273;9.316;-2.145;-0.007;-0.001;-0.002;
20190925_050228;0.294;9.282;-2.241;-0.003;-0.000;-0.001;
20190925_050228;0.268;9.373;-2.210;0.002;0.001;-0.001;
20190925_050229;0.268;9.378;-2.191;0.001;0.001;0.001;
20190925_050229;0.297;9.383;-2.227;-0.000;0.001;0.001;
20190925_050229;0.273;9.364;-2.210;-0.000;0.001;-0.000;
20190925_050229;0.261;9.402;-2.253;-0.000;-0.000;-0.000;
20190925_050229;0.235;9.390;-2.260;-0.000;0.001;0.001;
20190925_050229;0.268;9.436;-2.255;0.001;-0.000;-0.000;
20190925_050229;0.283;9.409;-2.253;-0.000;0.001;-0.001;
20190925_050229;0.323;9.400;-2.258;0.004;0.002;-0.000;
20190925_050229;0.330;9.431;-2.224;-0.002;0.001;-0.001;
20190925_050230;0.247;9.428;-2.260;0.001;-0.000;-0.004;
20190925_050230;0.321;9.364;-2.231;0.005;0.005;-0.001;
20190925_050230;0.290;9.428;-2.116;-0.003;0.002;-0.003;
20190925_050230;0.321;9.440;-2.205;0.005;0.001;-0.000;
20190925_050230;0.237;9.412;-2.253;0.001;-0.002;-0.004;
20190925_050230;0.309;9.366;-2.210;-0.001;-0.001;-0.003;
20190925_050230;0.230;9.421;-2.179;-0.002;0.003;-0.004;
20190925_050230;0.235;9.407;-2.217;-0.005;0.001;-0.004;
20190925_050230;0.381;9.388;-2.274;-0.009;-0.000;-0.003;
20190925_050230;0.230;9.388;-2.143;0.002;0.003;-0.003;
20190925_050231;0.326;9.469;-2.298;0.003;0.006;0.001;
20190925_050231;0.211;9.390;-2.394;0.010;-0.002;-0.002;
20190925_050231;0.335;9.416;-2.270;0.003;0.002;0.001;
20190925_050231;0.395;9.345;-2.179;-0.002;0.003;0.001;
20190925_050231;0.299;9.278;-2.152;-0.006;-0.000;-0.003;
20190925_050231;0.388;9.359;-2.222;0.003;0.001;0.001;
20190925_050231;0.299;9.304;-2.160;-0.002;0.002;0.002;
20190925_050231;0.333;9.282;-2.198;-0.001;0.002;-0.000;
20190925_050231;0.244;9.313;-2.205;0.001;0.002;0.001;
20190925_050232;0.254;9.373;-2.229;-0.000;0.001;0.003;
20190925_050232;0.321;9.333;-2.255;-0.000;0.002;0.002;
20190925_050232;0.318;9.357;-2.274;0.001;0.002;0.002;
20190925_050232;0.309;9.340;-2.234;-0.002;-0.000;0.002;
20190925_050232;0.211;9.304;-2.258;0.002;0.004;0.002;
20190925_050232;0.323;9.359;-2.219;0.006;0.003;0.003;
20190925_050232;0.235;9.412;-2.193;0.001;0.002;0.002;
20190925_050232;0.395;9.397;-2.239;0.001;0.003;0.003;
20190925_050232;0.283;9.383;-2.253;0.001;0.002;-0.000;
20190925_050232;0.280;9.459;-2.282;0.003;0.003;0.002;
20190925_050233;0.232;9.349;-2.179;0.001;0.002;0.002;
20190925_050233;0.165;9.376;-2.267;0.002;0.003;-0.001;
20190925_050233;0.201;9.424;-2.116;-0.000;-0.000;0.002;
20190925_050233;0.163;9.373;-2.150;-0.002;0.001;-0.001;
20190925_050233;0.175;9.550;-2.169;-0.003;-0.000;0.001;
20190925_050233;0.158;9.373;-2.263;-0.003;-0.000;0.001;
20190925_050233;0.263;9.383;-2.193;0.002;0.003;0.002;
20190925_050233;0.323;9.371;-2.277;-0.000;-0.001;0.003;
20190925_050233;0.213;9.397;-2.351;0.005;0.003;-0.000;
20190925_050234;0.196;9.407;-2.157;-0.000;0.001;0.002;
20190925_050234;0.180;9.316;-2.217;-0.001;0.001;-0.001;
20190925_050234;0.192;9.361;-2.157;0.002;0.001;0.001;
20190925_050234;0.266;9.366;-2.241;0.002;0.001;0.002;
20190925_050234;0.206;9.345;-2.195;0.002;-0.000;0.001;
20190925_050234;0.263;9.299;-2.179;-0.001;-0.001;-0.000;
20190925_050234;0.283;9.304;-2.217;0.001;-0.000;-0.001;
20190925_050234;0.261;9.280;-2.217;-0.001;-0.002;-0.002;
20190925_050234;0.177;9.278;-2.207;0.002;-0.000;-0.004;
20190925_050235;0.249;9.321;-2.124;-0.000;-0.001;-0.001;
20190925_050235;0.259;9.249;-2.231;-0.001;-0.002;-0.002;
20190925_050235;0.194;9.285;-2.310;0.002;-0.001;-0.002;
20190925_050235;0.263;9.321;-2.322;0.003;-0.000;-0.002;
20190925_050235;0.345;9.261;-2.167;-0.002;-0.002;-0.004;
20190925_050235;0.268;9.292;-2.148;-0.005;-0.001;-0.005;
20190925_050235;0.268;9.294;-2.164;0.002;-0.000;-0.003;
20190925_050235;0.297;9.349;-2.263;0.003;-0.000;-0.002;
20190925_050235;0.256;9.301;-2.195;-0.000;-0.002;-0.003;
20190925_050235;0.249;9.301;-2.193;0.001;-0.000;-0.000;
20190925_050236;0.290;9.330;-2.217;0.002;-0.000;-0.001;
20190925_050236;0.302;9.318;-2.222;-0.001;-0.001;-0.001;
20190925_050236;0.261;9.335;-2.205;-0.000;-0.000;-0.003;
20190925_050236;0.251;9.366;-2.212;0.001;-0.001;-0.001;
20190925_050236;0.292;9.359;-2.212;-0.000;-0.001;-0.001;
20190925_050236;0.326;9.318;-2.195;-0.000;-0.000;-0.002;
20190925_050236;0.280;9.337;-2.193;0.001;-0.000;-0.002;
20190925_050236;0.294;9.347;-2.203;-0.000;-0.000;-0.002;
20190925_050236;0.366;9.357;-2.248;-0.000;-0.001;-0.002;
20190925_050237;0.230;9.323;-2.224;-0.000;-0.002;-0.003;
20190925_050237;0.314;9.325;-2.248;0.001;-0.000;0.000;
20190925_050237;0.333;9.371;-2.195;0.001;-0.000;-0.001;
20190925_050237;0.304;9.349;-2.231;0.001;-0.000;-0.001;
20190925_050237;0.299;9.323;-2.217;-0.001;-0.000;0.000;
20190925_050237;0.294;9.342;-2.176;0.001;0.001;-0.002;
20190925_050237;0.275;9.330;-2.234;-0.000;-0.000;-0.001;
20190925_050237;0.302;9.325;-2.219;0.005;0.001;0.000;
20190925_050237;0.287;9.330;-2.195;-0.001;0.001;-0.001;
20190925_050237;0.297;9.328;-2.207;0.001;-0.000;0.000;
20190925_050238;0.249;9.304;-2.270;0.001;-0.000;0.000;
20190925_050238;0.330;9.337;-2.188;-0.001;0.002;0.000;
20190925_050238;0.309;9.290;-2.231;-0.002;-0.000;0.000;
20190925_050238;0.294;9.318;-2.217;0.002;0.002;0.001;
20190925_050238;0.283;9.349;-2.267;0.001;0.001;0.001;
20190925_050238;0.290;9.323;-2.219;-0.001;0.001;0.000;
20190925_050238;0.285;9.311;-2.258;-0.000;0.001;0.001;
20190925_050238;0.297;9.301;-2.222;0.001;-0.000;0.001;
20190925_050238;0.268;9.335;-2.234;0.001;0.001;0.000;
20190925_050239;0.306;9.342;-2.210;0.001;0.002;0.001;
20190925_050239;0.273;9.357;-2.234;-0.001;0.001;0.000;
20190925_050239;0.342;9.321;-2.219;-0.001;-0.000;0.002;
20190925_050239;0.290;9.328;-2.195;0.002;-0.000;0.000;
20190925_050239;0.323;9.354;-2.251;-0.000;-0.000;0.000;
20190925_050239;0.314;9.352;-2.207;0.001;0.001;0.000;
20190925_050239;0.345;9.335;-2.236;0.001;0.002;0.000;
20190925_050239;0.306;9.325;-2.212;0.003;-0.000;0.000;
20190925_050239;0.316;9.392;-2.234;-0.000;0.001;-0.001;
20190925_050239;0.323;9.345;-2.212;-0.001;-0.000;-0.002;
20190925_050240;0.302;9.392;-2.258;-0.000;-0.000;0.000;
20190925_050240;0.314;9.318;-2.241;-0.000;0.002;-0.001;
20190925_050240;0.326;9.395;-2.234;-0.001;0.001;0.000;
20190925_050240;0.275;9.316;-2.203;-0.000;-0.000;-0.002;
20190925_050240;0.306;9.412;-2.212;0.002;0.001;-0.001;
20190925_050240;0.328;9.414;-2.236;-0.002;-0.000;-0.001;
20190925_050240;0.335;9.337;-2.219;-0.001;0.001;-0.001;
20190925_050240;0.294;9.392;-2.191;0.001;0.001;-0.001;
20190925_050240;0.304;9.390;-2.203;-0.000;0.003;0.002;
20190925_050241;0.283;9.342;-2.174;-0.001;0.003;0.000;
20190925_050241;0.278;9.357;-2.212;-0.000;0.001;0.002;
20190925_050241;0.268;9.354;-2.191;0.002;0.001;0.001;
20190925_050241;0.235;9.388;-2.246;0.002;0.002;0.002;
20190925_050241;0.278;9.364;-2.215;-0.003;0.003;0.004;
20190925_050241;0.263;9.352;-2.207;0.002;0.000;0.002;
20190925_050241;0.290;9.366;-2.198;-0.001;0.001;0.002;
20190925_050241;0.261;9.388;-2.217;-0.000;0.001;0.002;
20190925_050241;0.249;9.366;-2.195;-0.001;0.000;0.003;
20190925_050242;0.266;9.337;-2.222;-0.000;0.001;0.003;
20190925_050242;0.227;9.352;-2.251;0.001;0.001;0.003;
20190925_050242;0.237;9.330;-2.176;0.002;-0.001;0.001;
20190925_050242;0.268;9.325;-2.212;-0.001;0.002;0.003;
20190925_050242;0.201;9.369;-2.231;0.002;-0.001;0.000;
20190925_050242;0.256;9.349;-2.184;-0.001;0.001;0.003;
20190925_050242;0.227;9.352;-2.181;0.001;-0.001;0.000;
20190925_050242;0.230;9.354;-2.215;-0.000;-0.001;0.002;
20190925_050242;0.256;9.371;-2.210;0.001;0.000;-0.001;
20190925_050242;0.244;9.378;-2.210;0.001;-0.002;0.000;
20190925_050243;0.237;9.400;-2.195;-0.000;-0.002;0.000;
20190925_050243;0.218;9.402;-2.200;-0.000;-0.001;0.000;
20190925_050243;0.201;9.340;-2.212;0.001;-0.001;0.000;
20190925_050243;0.232;9.378;-2.248;0.002;-0.001;0.000;
20190925_050243;0.244;9.390;-2.186;0.001;0.000;-0.001;
20190925_050243;0.259;9.412;-2.229;-0.000;-0.002;-0.001;
20190925_050243;0.273;9.400;-2.222;0.002;-0.003;-0.003;
20190925_050243;0.256;9.421;-2.239;0.001;-0.001;0.000;
20190925_050243;0.263;9.428;-2.224;0.001;-0.001;-0.002;
20190925_050244;0.261;9.440;-2.210;0.002;-0.001;-0.001;
20190925_050244;0.297;9.426;-2.203;0.002;-0.001;-0.001;
20190925_050244;0.271;9.426;-2.229;-0.000;-0.004;-0.004;
20190925_050244;0.256;9.404;-2.195;-0.001;-0.001;-0.002;
20190925_050244;0.285;9.390;-2.239;0.002;-0.002;-0.002;
20190925_050244;0.268;9.416;-2.234;-0.000;-0.001;-0.003;
20190925_050244;0.278;9.419;-2.236;0.001;-0.002;-0.003;
20190925_050244;0.294;9.380;-2.188;-0.000;-0.002;-0.002;
20190925_050244;0.237;9.416;-2.229;-0.003;-0.002;-0.004;
20190925_050245;0.302;9.431;-2.239;-0.001;-0.002;-0.003;
20190925_050245;0.273;9.395;-2.236;-0.001;-0.002;-0.002;
20190925_050245;0.251;9.424;-2.236;-0.000;-0.002;-0.003;
20190925_050245;0.297;9.371;-2.179;0.001;-0.002;-0.002;
20190925_050245;0.292;9.436;-2.229;-0.001;-0.001;-0.002;
20190925_050245;0.309;9.440;-2.236;-0.000;-0.001;-0.001;
20190925_050245;0.273;9.369;-2.195;-0.003;-0.002;-0.002;
20190925_050245;0.297;9.433;-2.222;0.002;-0.002;-0.002;
20190925_050245;0.294;9.431;-2.234;-0.000;-0.001;-0.002;
20190925_050245;0.299;9.392;-2.224;0.002;-0.001;-0.003;
20190925_050246;0.294;9.407;-2.219;-0.000;-0.001;-0.002;
20190925_050246;0.299;9.402;-2.217;0.000;-0.001;-0.002;
20190925_050246;0.316;9.412;-2.239;0.001;0.001;-0.000;
20190925_050246;0.321;9.419;-2.212;-0.001;0.002;-0.002;
20190925_050246;0.357;9.421;-2.265;-0.004;0.001;-0.000;
20190925_050246;0.285;9.464;-2.251;0.003;0.002;-0.000;
20190925_050246;0.290;9.459;-2.258;0.001;0.002;-0.000;
20190925_050246;0.323;9.471;-2.263;0.000;0.002;-0.000;
20190925_050246;0.328;9.419;-2.224;0.000;0.002;0.001;
20190925_050247;0.283;9.462;-2.236;-0.001;0.002;0.001;
20190925_050247;0.323;9.426;-2.260;-0.001;0.003;0.001;
20190925_050247;0.294;9.383;-2.219;0.000;0.002;0.001;
20190925_050247;0.275;9.400;-2.191;0.001;0.002;0.001;
20190925_050247;0.297;9.419;-2.222;0.000;0.003;0.001;
20190925_050247;0.292;9.409;-2.217;0.001;0.004;0.001;
20190925_050247;0.309;9.414;-2.236;0.000;0.003;0.002;
20190925_050247;0.302;9.380;-2.236;-0.001;0.003;0.003;
20190925_050247;0.309;9.369;-2.210;-0.001;0.001;0.001;
20190925_050248;0.287;9.407;-2.212;0.000;0.001;0.002;
20190925_050248;0.294;9.373;-2.200;0.000;0.002;0.003;
20190925_050248;0.280;9.373;-2.212;0.000;0.003;0.003;
20190925_050248;0.278;9.380;-2.243;-0.001;0.002;0.003;
20190925_050248;0.299;9.354;-2.229;-0.002;0.002;0.004;
20190925_050248;0.299;9.380;-2.215;-0.001;0.001;0.003;
20190925_050248;0.275;9.390;-2.251;0.000;0.002;0.003;
20190925_050248;0.299;9.395;-2.200;0.001;0.002;0.002;
20190925_050248;0.280;9.436;-2.212;0.001;0.002;0.003;
20190925_050248;0.297;9.416;-2.248;-0.001;0.002;0.002;
20190925_050249;0.294;9.419;-2.236;-0.001;0.002;0.003;
20190925_050249;0.302;9.409;-2.224;0.001;0.002;0.002;
20190925_050249;0.280;9.443;-2.234;0.001;0.001;0.002;
20190925_050249;0.268;9.443;-2.258;0.001;0.001;0.002;
20190925_050249;0.292;9.481;-2.260;0.003;0.002;0.002;
20190925_050249;0.292;9.459;-2.258;-0.001;0.002;0.001;
20190925_050249;0.316;9.464;-2.267;-0.002;0.001;0.001;
20190925_050249;0.275;9.433;-2.260;0.000;0.001;-0.000;
20190925_050249;0.299;9.479;-2.258;-0.001;0.002;0.001;
20190925_050250;0.285;9.488;-2.243;-0.001;0.001;-0.002;
20190925_050250;0.326;9.440;-2.251;0.000;0.002;-0.002;
20190925_050250;0.306;9.498;-2.270;0.000;0.003;0.001;
20190925_050250;0.304;9.486;-2.274;0.004;0.001;0.001;
20190925_050250;0.302;9.500;-2.251;0.000;0.001;-0.002;
20190925_050250;0.318;9.500;-2.224;-0.002;0.002;-0.000;
20190925_050250;0.299;9.440;-2.253;0.000;0.001;-0.000;
20190925_050250;0.304;9.500;-2.239;0.001;0.001;-0.000;
20190925_050250;0.299;9.503;-2.241;-0.002;0.003;-0.002;
20190925_050251;0.318;9.455;-2.267;-0.001;0.001;-0.000;
20190925_050251;0.342;9.455;-2.217;0.000;0.001;-0.000;
20190925_050251;0.306;9.507;-2.255;-0.001;-0.001;-0.002;
20190925_050251;0.333;9.471;-2.270;-0.002;0.000;-0.002;
20190925_050251;0.306;9.467;-2.239;0.003;0.000;-0.003;
20190925_050251;0.314;9.519;-2.258;0.000;0.000;-0.000;
20190925_050251;0.350;9.558;-2.251;-0.002;-0.001;-0.000;
20190925_050251;0.311;9.483;-2.263;-0.002;0.000;-0.002;
20190925_050251;0.328;9.486;-2.286;0.003;0.002;0.002;
20190925_050252;0.321;9.584;-2.231;-0.002;0.000;-0.000;
20190925_050252;0.302;9.507;-2.277;0.001;0.000;-0.000;
20190925_050252;0.340;9.531;-2.227;-0.001;0.001;0.001;
20190925_050252;0.316;9.493;-2.246;-0.001;0.001;0.001;
20190925_050252;0.299;9.548;-2.265;0.000;0.001;0.001;
20190925_050252;0.306;9.524;-2.253;-0.002;0.001;0.002;
20190925_050252;0.311;9.469;-2.265;0.000;0.001;0.002;
20190925_050252;0.275;9.476;-2.198;0.001;0.001;0.002;
20190925_050252;0.275;9.462;-2.243;-0.001;0.002;0.004;
20190925_050252;0.275;9.400;-2.234;0.000;0.002;0.003;
20190925_050253;0.302;9.412;-2.222;0.000;0.002;0.004;
20190925_050253;0.273;9.390;-2.251;-0.002;0.000;0.003;
20190925_050253;0.271;9.366;-2.224;0.001;0.001;0.002;
20190925_050253;0.283;9.385;-2.198;0.000;0.001;0.003;
20190925_050253;0.271;9.340;-2.231;0.001;0.000;0.002;
20190925_050253;0.294;9.390;-2.227;0.000;0.001;0.001;
20190925_050253;0.333;9.376;-2.224;0.000;0.000;-0.000;
20190925_050253;0.326;9.414;-2.219;0.001;-0.001;-0.000;
20190925_050253;0.242;9.414;-2.234;-0.001;0.000;-0.002;
20190925_050254;0.249;9.385;-2.263;0.000;-0.001;-0.002;
20190925_050254;0.249;9.424;-2.205;-0.001;0.000;-0.004;
20190925_050254;0.251;9.450;-2.267;0.002;0.001;-0.000;
20190925_050254;0.314;9.450;-2.251;0.000;0.000;-0.000;
20190925_050254;0.275;9.486;-2.200;0.000;0.000;-0.002;
20190925_050254;0.330;9.476;-2.306;0.000;0.000;-0.002;
20190925_050254;0.294;9.495;-2.248;0.001;-0.001;-0.000;
20190925_050254;0.299;9.503;-2.251;0.002;0.000;0.001;
20190925_050254;0.304;9.476;-2.248;-0.001;-0.001;-0.002;
20190925_050254;0.268;9.452;-2.219;0.001;0.000;-0.000;
20190925_050255;0.364;9.464;-2.229;0.002;0.001;-0.003;
20190925_050255;0.292;9.438;-2.274;0.001;0.000;-0.002;
20190925_050255;0.340;9.452;-2.224;0.001;0.001;0.001;
20190925_050255;0.323;9.369;-2.167;-0.007;-0.004;-0.004;
20190925_050255;0.297;9.459;-2.222;0.002;0.001;-0.002;
20190925_050255;0.311;9.426;-2.236;0.002;0.002;0.002;
20190925_050255;0.287;9.371;-2.298;-0.002;-0.001;-0.004;
20190925_050255;0.316;9.380;-2.131;-0.005;-0.002;-0.003;
20190925_050255;0.347;9.409;-2.227;0.004;0.002;-0.002;
20190925_050256;0.306;9.440;-2.284;0.001;0.000;-0.000;
20190925_050256;0.333;9.373;-2.205;0.000;-0.001;-0.000;
20190925_050256;0.338;9.383;-2.203;0.001;0.002;0.001;
20190925_050256;0.357;9.359;-2.200;-0.001;-0.000;-0.000;
20190925_050256;0.287;9.421;-2.248;0.000;-0.000;0.001;
20190925_050256;0.309;9.431;-2.215;-0.001;-0.001;-0.000;
20190925_050256;0.294;9.392;-2.174;-0.001;-0.000;-0.000;
20190925_050256;0.304;9.459;-2.224;0.001;0.001;-0.000;
20190925_050256;0.304;9.500;-2.227;0.000;0.001;0.002;
20190925_050256;0.314;9.469;-2.217;0.000;0.001;0.001;
20190925_050257;0.321;9.457;-2.241;0.001;0.003;0.002;
20190925_050257;0.297;9.469;-2.231;0.000;-0.000;0.002;
20190925_050257;0.294;9.459;-2.222;0.000;-0.000;0.002;
20190925_050257;0.306;9.361;-2.215;0.001;-0.000;0.001;
20190925_050257;0.297;9.438;-2.210;0.002;-0.000;0.001;
20190925_050257;0.326;9.407;-2.198;-0.001;-0.000;0.002;
20190925_050257;0.294;9.409;-2.174;-0.002;-0.000;-0.000;
20190925_050257;0.330;9.385;-2.212;-0.001;-0.000;0.002;
20190925_050257;0.333;9.340;-2.217;-0.002;-0.001;-0.001;
20190925_050258;0.306;9.380;-2.251;-0.001;-0.000;-0.000;
20190925_050258;0.290;9.337;-2.224;0.002;0.001;0.001;
20190925_050258;0.297;9.390;-2.193;0.001;0.002;-0.000;
20190925_050258;0.306;9.416;-2.162;-0.001;-0.001;-0.000;
20190925_050258;0.311;9.380;-2.248;0.001;-0.000;-0.000;
20190925_050258;0.311;9.440;-2.205;-0.001;-0.001;-0.000;
20190925_050258;0.326;9.414;-2.212;0.000;-0.000;-0.000;
20190925_050258;0.350;9.455;-2.217;-0.001;0.001;0.001;
20190925_050258;0.347;9.436;-2.274;0.001;-0.000;-0.001;
20190925_050259;0.373;9.467;-2.229;0.001;-0.001;-0.001;
20190925_050259;0.376;9.457;-2.231;0.000;-0.001;-0.001;
20190925_050259;0.383;9.462;-2.207;0.001;0.001;-0.001;
20190925_050259;0.397;9.452;-2.195;0.000;-0.000;-0.002;
20190925_050259;0.378;9.428;-2.217;-0.001;-0.000;-0.002;
20190925_050259;0.376;9.455;-2.215;-0.001;-0.000;-0.001;
20190925_050259;0.321;9.414;-2.227;-0.002;0.002;-0.000;
20190925_050259;0.254;9.438;-2.263;0.000;0.001;0.001;
20190925_050259;0.294;9.428;-2.263;-0.003;0.003;0.002;
20190925_050259;0.304;9.414;-2.255;0.002;0.003;0.002;
20190925_050300;0.261;9.421;-2.207;0.000;0.002;0.004;
20190925_050300;0.273;9.407;-2.279;0.000;0.002;0.004;
20190925_050300;0.290;9.414;-2.210;-0.001;0.003;0.005;
20190925_050300;0.280;9.433;-2.215;0.001;0.003;0.005;
20190925_050300;0.304;9.438;-2.243;0.000;0.003;0.006;
20190925_050300;0.457;9.390;-2.277;-0.001;0.002;0.004;
20190925_050300;0.237;9.347;-2.164;-0.002;0.003;0.003;
20190925_050300;0.239;9.380;-2.176;0.000;0.001;0.003;
20190925_050300;0.273;9.404;-2.236;0.000;-0.000;0.002;
20190925_050301;0.268;9.378;-2.155;-0.001;0.002;0.002;
20190925_050301;0.285;9.402;-2.258;0.001;0.002;0.002;
20190925_050301;0.239;9.383;-2.176;-0.002;0.000;-0.000;
20190925_050301;0.254;9.395;-2.243;-0.001;0.000;-0.001;
20190925_050301;0.256;9.378;-2.215;-0.003;0.000;-0.001;
20190925_050301;0.271;9.388;-2.217;0.000;0.001;0.002;
20190925_050301;0.285;9.371;-2.248;-0.001;0.000;0.002;
20190925_050301;0.244;9.361;-2.219;-0.002;-0.001;-0.000;
20190925_050301;0.304;9.369;-2.172;-0.001;0.001;0.002;
20190925_050302;0.256;9.340;-2.193;-0.001;0.000;0.001;
20190925_050302;0.271;9.337;-2.234;0.000;-0.001;-0.000;
20190925_050302;0.208;9.357;-2.191;0.000;0.000;-0.000;
20190925_050302;0.287;9.357;-2.234;0.001;0.000;-0.000;
20190925_050302;0.242;9.340;-2.239;0.000;0.001;-0.000;
20190925_050302;0.304;9.357;-2.229;-0.002;0.000;-0.000;
20190925_050302;0.330;9.316;-2.205;-0.001;-0.001;0.002;
20190925_050302;0.345;9.357;-2.217;-0.004;-0.001;0.004;
20190925_050302;0.306;9.318;-2.236;-0.004;-0.001;0.002;
20190925_050303;0.256;9.306;-2.205;0.001;0.000;0.001;
20190925_050303;0.263;9.318;-2.210;0.001;-0.001;0.001;
20190925_050303;0.251;9.354;-2.212;0.001;-0.001;0.002;
20190925_050303;0.275;9.404;-2.265;-0.002;0.000;0.003;
20190925_050303;0.232;9.290;-2.186;-0.002;-0.001;-0.000;
20190925_050303;0.294;9.371;-2.200;0.000;0.001;0.003;
20190925_050303;0.189;9.354;-2.313;0.006;0.002;0.004;
20190925_050303;0.239;9.316;-2.215;-0.004;-0.003;0.001;
20190925_050303;0.237;9.352;-2.219;-0.001;0.000;-0.000;
20190925_050304;0.263;9.352;-2.215;0.001;0.001;0.003;
20190925_050304;0.215;9.349;-2.270;0.000;-0.001;0.002;
20190925_050304;0.230;9.395;-2.219;-0.002;-0.002;0.001;
20190925_050304;0.170;9.361;-2.231;-0.005;-0.003;-0.001;
20190925_050304;0.218;9.342;-2.301;0.010;0.002;0.001;
20190925_050304;0.177;9.357;-2.277;-0.007;-0.005;-0.004;
20190925_050304;0.223;9.321;-2.191;0.001;-0.002;0.001;
20190925_050304;0.283;9.321;-2.241;0.001;-0.001;0.002;
20190925_050304;0.230;9.294;-2.207;0.002;-0.004;-0.002;
20190925_050304;0.254;9.325;-2.224;-0.001;-0.003;-0.003;
20190925_050305;0.287;9.309;-2.203;-0.001;-0.003;-0.002;
20190925_050305;0.311;9.337;-2.200;0.001;-0.003;-0.004;
20190925_050305;0.290;9.311;-2.219;0.001;-0.002;-0.005;
20190925_050305;0.316;9.323;-2.205;-0.002;-0.003;-0.005;
20190925_050305;0.309;9.237;-2.172;0.002;-0.002;-0.005;
20190925_050305;0.283;9.294;-2.286;-0.002;-0.003;-0.005;
20190925_050305;0.244;9.309;-2.184;0.001;-0.003;-0.005;
20190925_050305;0.273;9.333;-2.195;-0.002;-0.003;-0.005;
20190925_050305;0.287;9.287;-2.195;-0.003;-0.003;-0.007;
20190925_050306;0.278;9.270;-2.203;-0.001;-0.002;-0.004;
20190925_050306;0.297;9.297;-2.193;0.001;-0.003;-0.004;
20190925_050306;0.268;9.261;-2.219;0.000;-0.003;-0.005;
20190925_050306;0.350;9.290;-2.217;-0.001;-0.002;-0.004;
20190925_050306;0.340;9.321;-2.243;-0.000;-0.002;-0.004;
20190925_050306;0.321;9.287;-2.231;0.002;-0.001;-0.002;
20190925_050306;0.338;9.321;-2.253;0.001;-0.000;-0.002;
20190925_050306;0.299;9.313;-2.191;-0.001;-0.000;-0.001;
20190925_050306;0.278;9.299;-2.291;0.002;0.001;-0.000;
20190925_050307;0.251;9.268;-2.114;0.001;-0.008;-0.007;
20190925_050307;0.297;9.359;-2.342;-0.004;-0.000;-0.002;
20190925_050307;0.342;9.337;-2.195;-0.001;0.001;-0.000;
20190925_050307;0.326;9.292;-2.152;-0.003;0.002;-0.000;
20190925_050307;0.316;9.347;-2.325;-0.000;-0.001;-0.001;
20190925_050307;0.347;9.337;-2.229;-0.001;0.002;-0.001;
20190925_050307;0.359;9.342;-2.191;-0.002;0.001;-0.000;
20190925_050307;0.371;9.340;-2.210;-0.005;0.002;0.003;
20190925_050307;0.366;9.301;-2.227;-0.003;0.002;0.002;
20190925_050308;0.362;9.330;-2.227;-0.000;0.002;-0.000;
20190925_050308;0.263;9.388;-2.222;-0.000;0.003;0.001;
20190925_050308;0.266;9.297;-2.160;-0.003;0.003;0.001;
20190925_050308;0.318;9.361;-2.205;-0.002;0.001;0.004;
20190925_050308;0.297;9.345;-2.215;-0.003;0.002;0.002;
20190925_050308;0.292;9.280;-2.181;-0.001;-0.000;0.001;
20190925_050308;0.330;9.306;-2.124;-0.002;0.001;0.003;
20190925_050308;0.302;9.318;-2.200;-0.003;0.002;0.004;
20190925_050308;0.287;9.294;-2.188;-0.004;0.002;0.003;
20190925_050308;0.338;9.311;-2.219;0.002;-0.002;-0.000;
20190925_050309;0.402;9.313;-2.195;0.004;0.001;-0.002;
20190925_050309;0.294;9.275;-2.258;-0.000;0.002;-0.002;
20190925_050309;0.180;9.311;-2.162;0.005;0.002;-0.000;
20190925_050309;0.215;9.342;-2.191;-0.000;0.002;0.002;
20190925_050309;0.225;9.330;-2.243;-0.001;0.003;-0.000;
20190925_050309;0.242;9.335;-2.203;0.002;0.001;0.001;
20190925_050309;0.251;9.371;-2.265;0.001;0.003;0.001;
20190925_050309;0.235;9.318;-2.174;0.002;0.002;-0.000;
20190925_050309;0.247;9.395;-2.219;0.001;0.001;-0.000;
20190925_050310;0.261;9.493;-2.243;-0.002;0.001;0.001;
20190925_050310;0.163;9.361;-2.236;0.001;0.001;0.002;
20190925_050310;0.227;9.450;-2.231;0.004;0.003;0.003;
20190925_050310;0.204;9.459;-2.342;0.001;0.003;0.001;
20190925_050310;0.151;9.395;-2.274;0.004;0.002;0.001;
20190925_050310;0.304;9.407;-2.169;0.004;0.002;0.005;
20190925_050310;0.239;9.428;-2.222;-0.001;0.002;0.003;
20190925_050310;0.244;9.390;-2.251;-0.000;0.002;0.004;
20190925_050310;0.213;9.385;-2.195;-0.001;0.001;0.002;
20190925_050311;0.247;9.347;-2.207;-0.003;-0.001;0.001;
20190925_050311;0.218;9.376;-2.200;-0.004;-0.000;-0.000;
20190925_050311;0.237;9.352;-2.229;0.003;-0.001;-0.000;
20190925_050311;0.263;9.352;-2.198;-0.001;-0.002;-0.001;
20190925_050311;0.261;9.373;-2.258;0.002;-0.002;-0.003;
20190925_050311;0.283;9.292;-2.172;-0.001;-0.003;-0.003;
20190925_050311;0.323;9.337;-2.217;0.000;-0.004;-0.006;
20190925_050311;0.302;9.306;-1.867;-0.012;0.000;-0.002;
20190925_050311;-0.778;8.650;-2.342;0.036;0.007;0.013;
20190925_050311;-0.038;9.297;-1.111;-0.132;0.013;-0.001;
20190925_050312;0.728;9.292;-1.987;0.037;-0.008;-0.018;
20190925_050312;0.314;9.052;-1.602;0.014;-0.003;-0.008;
20190925_050312;0.302;9.206;-1.997;0.002;0.006;0.007;
20190925_050312;0.297;9.481;-2.533;0.007;-0.007;-0.010;
20190925_050312;0.180;9.390;-2.160;0.003;-0.003;-0.006;
20190925_050312;0.211;9.392;-2.342;0.003;-0.006;-0.007;
20190925_050312;0.330;9.436;-2.430;0.008;-0.004;-0.005;
20190925_050312;0.294;9.416;-2.346;0.004;-0.004;-0.004;
20190925_050312;0.342;9.380;-2.298;0.004;-0.003;-0.004;
20190925_050313;0.230;9.359;-2.265;0.002;-0.003;-0.004;
20190925_050313;0.357;9.330;-2.267;0.002;-0.003;-0.004;
20190925_050313;0.302;9.371;-2.251;0.002;-0.003;-0.002;
20190925_050313;0.287;9.321;-2.143;-0.002;-0.002;-0.001;
20190925_050313;0.283;9.299;-2.224;0.000;-0.003;-0.003;
20190925_050313;0.278;9.306;-2.148;-0.002;-0.002;-0.002;
20190925_050313;0.333;9.275;-2.203;-0.002;0.000;-0.003;
20190925_050313;0.302;9.290;-2.160;-0.002;-0.001;-0.002;
20190925_050313;0.292;9.280;-2.176;0.002;0.000;-0.003;
20190925_050314;0.302;9.287;-2.184;-0.002;0.000;-0.002;
20190925_050314;0.302;9.323;-2.195;-0.002;0.000;-0.001;
20190925_050314;0.283;9.249;-2.212;0.002;0.000;-0.001;
20190925_050314;0.294;9.297;-2.145;-0.001;0.002;0.000;
20190925_050314;0.201;9.282;-2.155;0.000;0.000;0.000;
20190925_050314;0.311;9.306;-2.193;0.003;0.002;0.001;
20190925_050314;0.280;9.275;-2.222;0.002;0.003;0.000;
20190925_050314;0.297;9.292;-2.241;0.004;0.002;0.001;
20190925_050314;0.287;9.313;-2.215;0.002;0.002;0.000;
20190925_050314;0.275;9.220;-2.164;0.000;-0.001;0.001;
20190925_050315;0.259;9.254;-2.193;0.004;0.000;0.001;
20190925_050315;0.237;9.325;-2.191;0.003;0.000;0.001;
20190925_050315;0.302;9.321;-2.181;-0.001;0.000;0.003;
20190925_050315;0.275;9.285;-2.212;0.000;0.000;0.001;
20190925_050315;0.266;9.268;-2.186;0.002;0.000;0.001;
20190925_050315;0.292;9.333;-2.229;0.000;0.000;0.000;
20190925_050315;0.297;9.402;-2.200;0.003;0.000;0.001;
20190925_050315;0.177;9.369;-2.325;0.003;-0.001;-0.001;
20190925_050315;0.247;9.431;-2.349;0.004;0.002;0.001;
20190925_050316;0.285;9.337;-2.136;-0.004;0.000;0.001;
20190925_050316;0.266;9.328;-2.102;0.002;-0.001;0.001;
20190925_050316;0.261;9.373;-2.219;0.002;-0.002;-0.001;
20190925_050316;0.290;9.325;-2.239;0.003;-0.002;0.000;
20190925_050316;0.247;9.361;-2.198;0.000;-0.001;-0.001;
20190925_050316;0.227;9.270;-2.145;0.002;-0.002;-0.001;
20190925_050316;0.215;9.321;-2.169;0.000;-0.002;-0.001;
20190925_050316;0.227;9.306;-2.219;0.000;-0.002;0.000;
20190925_050316;0.266;9.285;-2.200;-0.001;-0.002;0.000;
20190925_050316;0.271;9.304;-2.181;0.000;-0.001;-0.001;
20190925_050317;0.249;9.301;-2.198;0.003;-0.001;-0.001;
20190925_050317;0.230;9.294;-2.207;-0.002;-0.003;-0.001;
20190925_050317;0.187;9.263;-2.133;-0.002;-0.002;-0.002;
20190925_050317;0.306;9.294;-2.155;0.004;-0.002;-0.002;
20190925_050317;0.247;9.249;-2.157;0.004;-0.002;-0.002;
20190925_050317;0.278;9.270;-2.157;0.002;-0.001;0.000;
20190925_050317;0.278;9.337;-2.279;0.002;-0.002;-0.001;
20190925_050317;0.235;9.287;-2.203;-0.001;-0.003;-0.003;
20190925_050317;0.237;9.297;-2.136;-0.001;-0.004;-0.004;
20190925_050318;0.230;9.342;-2.272;0.002;-0.004;-0.002;
20190925_050318;0.271;9.294;-2.167;0.001;-0.003;-0.003;
20190925_050318;0.287;9.316;-2.231;0.003;-0.003;-0.003;
20190925_050318;0.285;9.357;-2.243;0.001;-0.003;-0.003;
20190925_050318;0.266;9.347;-2.215;0.001;-0.003;-0.003;
20190925_050318;0.314;9.359;-2.181;0.001;-0.003;-0.002;
20190925_050318;0.230;9.371;-2.217;0.001;-0.004;-0.007;
20190925_050318;0.237;9.347;-2.260;0.008;-0.004;-0.003;
20190925_050318;0.304;9.414;-2.227;0.001;-0.001;-0.003;
20190925_050318;0.299;9.383;-2.279;-0.005;-0.004;-0.006;
20190925_050319;0.201;9.416;-2.234;-0.001;-0.004;-0.005;
20190925_050319;0.287;9.395;-2.212;0.002;-0.003;-0.004;
20190925_050319;0.247;9.392;-2.215;0.001;-0.001;-0.005;
20190925_050319;0.326;9.404;-2.318;-0.003;-0.003;-0.006;
20190925_050319;0.304;9.385;-2.215;-0.001;-0.004;-0.005;
20190925_050319;0.333;9.414;-2.248;0.001;-0.003;-0.005;
20190925_050319;0.294;9.376;-2.227;-0.001;-0.002;-0.005;
20190925_050319;0.328;9.455;-2.251;-0.001;-0.003;-0.004;
20190925_050319;0.321;9.400;-2.222;-0.003;-0.004;-0.004;
20190925_050320;0.338;9.385;-2.267;0.002;-0.003;-0.005;
20190925_050320;0.314;9.397;-2.243;-0.002;-0.003;-0.005;
20190925_050320;0.373;9.412;-2.191;-0.002;-0.002;-0.003;
20190925_050320;0.335;9.359;-2.272;0.001;-0.003;-0.006;
20190925_050320;0.314;9.371;-2.246;-0.001;-0.002;-0.005;
20190925_050320;0.359;9.330;-2.188;-0.001;-0.001;-0.004;
20190925_050320;0.247;9.378;-2.231;0.006;-0.003;-0.004;
20190925_050320;0.357;9.357;-2.284;-0.001;-0.002;-0.003;
20190925_050320;0.333;9.378;-2.327;0.006;-0.001;-0.004;
20190925_050321;0.318;9.378;-2.294;0.005;-0.002;-0.002;
20190925_050321;0.299;9.378;-2.286;-0.002;-0.002;-0.006;
20190925_050321;0.340;9.390;-2.279;-0.002;-0.001;-0.004;
20190925_050321;0.340;9.323;-2.260;0.002;0.000;0.000;
20190925_050321;0.409;9.414;-2.253;0.003;0.003;0.000;
20190925_050321;0.287;9.383;-2.418;0.006;0.006;0.003;
20190925_050321;0.134;9.349;-2.037;0.009;0.000;0.003;
20190925_050321;0.259;9.407;-2.468;-0.007;0.003;0.006;
20190925_050321;0.318;9.404;-2.298;0.000;0.001;0.003;
20190925_050321;0.278;9.421;-2.155;-0.003;0.004;0.005;
20190925_050322;0.359;9.388;-2.203;-0.001;0.004;0.006;
20190925_050322;0.271;9.455;-2.339;0.005;0.001;0.002;
20190925_050322;0.292;9.448;-2.212;0.011;0.004;0.008;
20190925_050322;0.297;9.443;-2.294;0.003;-0.001;0.004;
20190925_050322;0.335;9.407;-2.236;-0.002;0.001;0.006;
20190925_050322;0.287;9.409;-2.236;-0.002;0.004;0.005;
20190925_050322;0.280;9.397;-2.239;0.001;0.000;0.004;
20190925_050322;0.294;9.409;-2.291;0.000;0.000;0.003;
20190925_050322;0.259;9.436;-2.231;-0.003;0.004;0.003;
20190925_050323;0.273;9.378;-2.251;-0.002;0.000;0.003;
20190925_050323;0.290;9.443;-2.239;0.000;0.000;0.004;
20190925_050323;0.261;9.392;-2.231;0.000;0.001;0.003;
20190925_050323;0.268;9.388;-2.267;0.000;0.001;0.003;
20190925_050323;0.275;9.414;-2.236;0.000;0.000;0.002;
20190925_050323;0.247;9.402;-2.251;0.000;0.001;0.003;
20190925_050323;0.273;9.400;-2.263;0.001;-0.001;0.002;
20190925_050323;0.273;9.402;-2.263;0.001;-0.001;0.002;
20190925_050323;0.249;9.426;-2.253;-0.001;0.000;0.002;
20190925_050323;0.261;9.428;-2.251;0.000;0.001;0.003;
20190925_050324;0.283;9.431;-2.236;-0.001;0.003;0.003;
20190925_050324;0.278;9.404;-2.231;0.000;0.000;0.002;
20190925_050324;0.280;9.419;-2.239;0.000;0.001;0.002;
20190925_050324;0.278;9.373;-2.253;0.000;-0.001;0.003;
20190925_050324;0.294;9.414;-2.236;-0.002;-0.001;0.002;
20190925_050324;0.261;9.395;-2.289;0.000;0.000;0.003;
20190925_050324;0.280;9.414;-2.255;-0.003;0.003;0.003;
20190925_050324;0.271;9.404;-2.258;0.000;0.000;0.002;
20190925_050324;0.292;9.414;-2.239;-0.002;0.001;0.003;
20190925_050325;0.294;9.390;-2.265;-0.002;0.000;0.003;
20190925_050325;0.323;9.395;-2.258;-0.002;-0.001;0.003;
20190925_050325;0.278;9.369;-2.241;0.001;-0.001;0.002;
20190925_050325;0.275;9.397;-2.224;-0.001;0.001;0.003;
20190925_050325;0.266;9.383;-2.246;-0.002;0.000;0.003;
20190925_050325;0.271;9.335;-2.246;-0.003;0.001;0.004;
20190925_050325;0.283;9.414;-2.224;-0.001;-0.001;0.003;
20190925_050325;0.239;9.407;-2.246;0.000;0.001;0.003;
20190925_050325;0.251;9.392;-2.260;-0.001;0.001;0.005;
20190925_050326;0.247;9.402;-2.274;-0.006;0.000;0.003;
20190925_050326;0.275;9.371;-2.212;-0.004;0.001;0.003;
20190925_050326;0.271;9.388;-2.229;-0.004;0.001;0.002;
20190925_050326;0.280;9.390;-2.119;0.006;0.000;0.006;
20190925_050326;0.287;9.400;-2.277;0.000;-0.001;0.003;
20190925_050326;0.254;9.402;-2.274;-0.001;0.000;0.003;
20190925_050326;0.254;9.342;-2.231;-0.001;-0.002;-0.002;
20190925_050326;0.311;9.383;-2.234;-0.004;-0.000;0.000;
20190925_050326;0.321;9.397;-2.217;-0.000;-0.001;-0.002;
20190925_050327;0.283;9.337;-2.255;0.001;-0.001;-0.003;
20190925_050327;0.280;9.301;-2.234;-0.000;-0.002;-0.002;
20190925_050327;0.294;9.352;-2.188;-0.003;-0.001;-0.002;
20190925_050327;0.244;9.340;-2.195;-0.001;-0.001;-0.002;
20190925_050327;0.326;9.313;-2.207;-0.001;-0.001;-0.002;
20190925_050327;0.237;9.294;-2.243;-0.000;-0.001;-0.003;
20190925_050327;0.261;9.311;-2.215;0.001;0.001;-0.002;
20190925_050327;0.280;9.323;-2.251;0.002;-0.000;-0.002;
20190925_050327;0.297;9.335;-2.222;-0.003;-0.000;-0.001;
20190925_050328;0.287;9.275;-2.203;-0.000;-0.000;-0.001;
20190925_050328;0.278;9.340;-2.212;-0.000;-0.001;-0.001;
20190925_050328;0.259;9.373;-2.224;0.001;-0.000;-0.001;
20190925_050328;0.278;9.333;-2.241;0.001;-0.000;0.000;
20190925_050328;0.242;9.380;-2.224;0.003;0.001;0.001;
20190925_050328;0.285;9.347;-2.246;0.002;0.001;0.000;
20190925_050328;0.261;9.361;-2.203;-0.000;-0.000;0.001;
20190925_050328;0.256;9.359;-2.227;0.002;-0.001;0.000;
20190925_050328;0.242;9.373;-2.215;0.002;0.001;0.001;
20190925_050328;0.283;9.340;-2.236;0.001;-0.001;-0.001;
20190925_050329;0.275;9.400;-2.243;0.002;-0.000;0.001;
20190925_050329;0.285;9.364;-2.239;-0.001;0.001;-0.001;
20190925_050329;0.302;9.388;-2.243;0.001;-0.001;-0.001;
20190925_050329;0.304;9.421;-2.222;-0.000;-0.001;-0.002;
20190925_050329;0.292;9.392;-2.227;-0.000;-0.001;-0.002;
20190925_050329;0.287;9.419;-2.258;0.002;-0.001;-0.002;
20190925_050329;0.314;9.400;-2.215;-0.000;-0.001;-0.002;
20190925_050329;0.294;9.359;-2.243;-0.001;-0.001;-0.002;
20190925_050329;0.318;9.371;-2.222;-0.000;-0.001;-0.003;
20190925_050330;0.321;9.354;-2.236;0.001;0.001;-0.002;
20190925_050330;0.294;9.361;-2.210;-0.000;-0.001;-0.002;
20190925_050330;0.304;9.342;-2.210;0.001;0.001;-0.002;
20190925_050330;0.290;9.345;-2.222;0.001;-0.000;-0.003;
20190925_050330;0.302;9.337;-2.224;-0.001;-0.000;-0.002;
20190925_050330;0.321;9.328;-2.243;0.002;-0.000;-0.001;
20190925_050330;0.285;9.352;-2.200;-0.001;-0.000;-0.002;
20190925_050330;0.314;9.359;-2.222;-0.000;-0.000;-0.001;
20190925_050330;0.283;9.369;-2.231;0.002;-0.000;0.000;
20190925_050330;0.292;9.342;-2.234;0.001;-0.000;0.000;
20190925_050331;0.306;9.357;-2.239;0.001;0.001;-0.001;
20190925_050331;0.273;9.376;-2.227;-0.000;0.001;0.000;
20190925_050331;0.287;9.383;-2.219;-0.000;0.001;0.000;
20190925_050331;0.287;9.390;-2.263;0.002;0.002;0.001;
20190925_050331;0.283;9.385;-2.234;-0.000;0.002;0.000;
20190925_050331;0.249;9.395;-2.186;-0.001;0.002;0.001;
20190925_050331;0.232;9.383;-2.258;-0.002;0.001;0.002;
20190925_050331;0.259;9.414;-2.246;0.000;0.002;0.004;
20190925_050331;0.271;9.366;-2.243;-0.001;0.002;0.004;
20190925_050332;0.256;9.383;-2.248;0.001;0.002;0.003;
20190925_050332;0.261;9.340;-2.231;0.001;-0.000;0.003;
20190925_050332;0.271;9.359;-2.210;0.000;0.001;0.002;
20190925_050332;0.251;9.371;-2.181;-0.001;0.002;0.002;
20190925_050332;0.271;9.287;-2.227;-0.002;0.002;0.003;
20190925_050332;0.263;9.357;-2.207;-0.001;-0.000;0.001;
20190925_050332;0.268;9.371;-2.200;-0.001;-0.001;0.001;
20190925_050332;0.275;9.287;-2.222;0.001;-0.000;0.001;
20190925_050332;0.290;9.345;-2.162;0.001;-0.000;-0.000;
20190925_050333;0.273;9.373;-2.215;0.001;-0.001;-0.000;
20190925_050333;0.318;9.352;-2.248;-0.001;-0.003;-0.001;
20190925_050333;0.294;9.352;-2.215;0.001;-0.001;-0.002;
20190925_050333;0.275;9.364;-2.203;-0.001;-0.000;-0.002;
20190925_050333;0.292;9.364;-2.207;0.000;-0.001;-0.002;
20190925_050333;0.304;9.364;-2.234;0.000;-0.001;-0.001;
20190925_050333;0.299;9.397;-2.217;-0.001;-0.001;-0.001;
20190925_050333;0.290;9.373;-2.210;0.001;-0.001;-0.002;
20190925_050333;0.290;9.407;-2.212;0.001;0.001;-0.000;
20190925_050333;0.283;9.409;-2.217;0.000;-0.000;-0.001;
20190925_050334;0.309;9.373;-2.246;-0.001;-0.000;-0.000;
20190925_050334;0.292;9.433;-2.179;0.000;-0.000;0.001;
20190925_050334;0.285;9.414;-2.205;-0.001;-0.000;-0.000;
20190925_050334;0.287;9.424;-2.203;-0.001;-0.000;0.001;
20190925_050334;0.283;9.433;-2.215;0.000;-0.000;0.001;
20190925_050334;0.278;9.443;-2.236;-0.001;0.001;0.002;
20190925_050334;0.259;9.431;-2.215;0.000;-0.000;0.002;
20190925_050334;0.268;9.397;-2.239;0.000;0.001;0.001;
20190925_050334;0.273;9.424;-2.217;0.000;-0.000;0.002;
20190925_050335;0.259;9.476;-2.229;0.001;0.001;0.002;
20190925_050335;0.273;9.438;-2.246;0.002;0.001;0.003;
20190925_050335;0.249;9.469;-2.217;0.000;-0.001;0.002;
20190925_050335;0.292;9.407;-2.203;-0.001;-0.000;0.001;
20190925_050335;0.278;9.443;-2.243;0.000;-0.000;0.001;
20190925_050335;0.297;9.436;-2.229;0.001;-0.000;0.001;
20190925_050335;0.311;9.452;-2.251;0.001;-0.000;-0.000;
20190925_050335;0.275;9.459;-2.229;0.001;-0.000;-0.002;
20190925_050335;0.297;9.505;-2.260;0.001;-0.000;-0.001;
20190925_050336;0.280;9.491;-2.251;-0.001;-0.000;-0.001;
20190925_050336;0.299;9.479;-2.239;0.004;-0.001;-0.001;
20190925_050336;0.304;9.452;-2.236;0.001;-0.000;-0.001;
20190925_050336;0.309;9.407;-2.253;-0.001;-0.003;-0.002;
20190925_050336;0.302;9.527;-2.267;0.004;-0.001;-0.002;
20190925_050336;0.302;9.500;-2.253;0.002;0.001;-0.001;
20190925_050336;0.283;9.498;-2.260;0.001;-0.000;-0.002;
20190925_050336;0.347;9.464;-2.289;0.000;0.001;0.001;
20190925_050336;0.299;9.493;-2.272;-0.006;0.000;-0.002;
20190925_050336;0.275;9.464;-2.224;-0.003;-0.003;-0.001;
20190925_050337;0.335;9.488;-2.215;0.001;0.000;0.001;
20190925_050337;0.364;9.464;-2.231;-0.000;-0.001;0.002;
20190925_050337;0.302;9.464;-2.145;-0.001;0.003;0.003;
20190925_050337;0.354;9.462;-2.301;0.003;0.000;0.001;
20190925_050337;0.333;9.498;-2.258;0.002;0.002;0.002;
20190925_050337;0.285;9.476;-2.200;-0.002;0.001;0.001;
20190925_050337;0.297;9.505;-2.224;-0.001;0.000;-0.000;
20190925_050337;0.314;9.565;-2.260;-0.001;0.001;0.001;
20190925_050337;0.268;9.500;-2.263;-0.000;0.002;0.003;
20190925_050338;0.259;9.565;-2.253;-0.001;0.000;0.001;
20190925_050338;0.285;9.558;-2.224;-0.000;0.001;0.002;
20190925_050338;0.316;9.505;-2.239;0.001;0.003;0.003;
20190925_050338;0.294;9.538;-2.255;0.001;0.002;0.003;
20190925_050338;0.275;9.536;-2.255;-0.001;0.001;0.002;
20190925_050338;0.254;9.543;-2.253;0.002;0.002;0.003;
20190925_050338;0.328;9.565;-2.318;0.001;0.001;0.003;
20190925_050338;0.268;9.495;-2.246;-0.002;0.001;0.002;
20190925_050338;0.273;9.495;-2.198;-0.000;0.001;0.001;
20190925_050339;0.283;9.491;-2.282;0.003;0.002;0.002;
20190925_050339;0.266;9.527;-2.222;0.001;0.002;0.001;
20190925_050339;0.273;9.479;-2.243;0.001;0.000;-0.000;
20190925_050339;0.275;9.483;-2.241;0.001;0.000;0.001;
20190925_050339;0.283;9.519;-2.231;-0.000;0.000;0.001;
20190925_050339;0.311;9.459;-2.282;0.003;0.002;0.001;
20190925_050339;0.328;9.483;-2.258;0.001;0.002;0.001;
20190925_050339;0.271;9.476;-2.260;-0.001;0.000;-0.002;
20190925_050339;0.280;9.450;-2.234;-0.002;-0.001;-0.000;
20190925_050339;0.275;9.428;-2.193;0.001;0.001;-0.001;
20190925_050340;0.287;9.436;-2.241;0.001;0.000;-0.000;
20190925_050340;0.309;9.407;-2.205;-0.001;0.001;-0.002;
20190925_050340;0.261;9.452;-2.253;0.003;0.001;-0.000;
20190925_050340;0.254;9.395;-2.205;-0.001;0.001;-0.001;
20190925_050340;0.285;9.402;-2.234;-0.000;0.001;-0.000;
20190925_050340;0.309;9.409;-2.258;-0.002;0.000;-0.001;
20190925_050340;0.292;9.380;-2.217;0.001;0.001;-0.001;
20190925_050340;0.268;9.400;-2.239;-0.000;0.001;-0.001;
20190925_050340;0.328;9.369;-2.210;-0.001;0.000;-0.002;
20190925_050341;0.280;9.400;-2.195;0.001;0.001;-0.000;
20190925_050341;0.275;9.462;-2.253;0.001;0.000;-0.000;
20190925_050341;0.273;9.421;-2.224;0.002;0.002;0.001;
20190925_050341;0.285;9.404;-2.164;0.001;0.001;-0.000;
20190925_050341;0.323;9.445;-2.184;-0.000;0.000;0.001;
20190925_050341;0.290;9.469;-2.251;-0.001;0.001;0.002;
20190925_050341;0.299;9.488;-2.260;0.001;0.000;0.001;
20190925_050341;0.309;9.455;-2.239;0.001;-0.001;-0.001;
20190925_050341;0.326;9.474;-2.241;0.001;0.001;-0.001;
20190925_050341;0.302;9.486;-2.246;0.002;-0.001;-0.002;
20190925_050342;0.285;9.510;-2.246;-0.002;0.000;-0.001;
20190925_050342;0.292;9.517;-2.234;-0.000;0.000;0.001;
20190925_050342;0.304;9.488;-2.301;-0.001;-0.001;0.001;
20190925_050342;0.314;9.448;-2.272;-0.001;-0.001;-0.001;
20190925_050342;0.280;9.467;-2.239;-0.001;-0.001;-0.001;
20190925_050342;0.316;9.452;-2.246;-0.000;-0.001;-0.001;
20190925_050342;0.266;9.421;-2.193;-0.001;0.000;-0.001;
20190925_050342;0.294;9.495;-2.227;-0.001;0.000;0.002;
20190925_050342;0.280;9.414;-2.272;-0.000;0.001;0.002;
20190925_050343;0.285;9.412;-2.217;-0.002;0.000;0.001;
20190925_050343;0.292;9.416;-2.195;0.001;0.000;0.003;
20190925_050343;0.283;9.426;-2.229;0.001;0.000;0.001;
20190925_050343;0.275;9.424;-2.239;0.001;0.000;0.002;
20190925_050343;0.271;9.412;-2.200;0.001;0.000;0.003;
20190925_050343;0.271;9.421;-2.179;-0.002;0.000;0.002;
20190925_050343;0.273;9.388;-2.219;-0.001;0.000;0.003;
20190925_050343;0.328;9.378;-2.191;-0.000;-0.001;0.003;
20190925_050343;0.271;9.431;-2.222;-0.001;0.000;0.003;
20190925_050344;0.278;9.347;-2.229;-0.002;0.000;0.002;
20190925_050344;0.263;9.378;-2.215;0.002;0.000;0.003;
20190925_050344;0.263;9.455;-2.241;0.001;0.000;0.001;
20190925_050344;0.294;9.459;-2.200;0.001;0.000;0.001;
20190925_050344;0.283;9.409;-2.258;-0.001;0.000;-0.001;
20190925_050344;0.290;9.419;-2.279;-0.001;-0.001;-0.001;
20190925_050344;0.290;9.428;-2.200;0.001;-0.001;0.001;
20190925_050344;0.285;9.448;-2.198;-0.000;0.000;0.001;
20190925_050344;0.287;9.479;-2.351;0.003;0.000;-0.001;
20190925_050345;0.266;9.481;-2.251;0.001;0.000;-0.001;
20190925_050345;0.261;9.512;-2.229;0.001;0.000;-0.001;
20190925_050345;0.273;9.414;-2.219;0.002;-0.002;-0.002;
20190925_050345;0.304;9.493;-2.217;0.001;-0.001;-0.001;
20190925_050345;0.335;9.498;-2.205;-0.003;-0.002;0.001;
20190925_050345;0.309;9.443;-2.263;0.002;0.000;-0.003;
20190925_050345;0.271;9.448;-2.215;-0.000;-0.001;-0.002;
20190925_050345;0.285;9.438;-2.224;-0.002;-0.002;-0.002;
20190925_050345;0.318;9.416;-2.229;0.001;0.000;-0.002;
20190925_050345;0.362;9.452;-2.219;-0.002;0.000;-0.002;
20190925_050346;0.326;9.390;-2.191;-0.002;-0.001;-0.001;
20190925_050346;0.256;9.371;-2.231;0.001;0.000;-0.002;
20190925_050346;0.299;9.404;-2.181;-0.000;0.000;-0.001;
20190925_050346;0.299;9.361;-2.203;-0.000;-0.001;0.001;
20190925_050346;0.249;9.385;-2.193;0.001;-0.001;-0.001;
20190925_050346;0.318;9.342;-2.200;-0.003;0.000;0.001;
20190925_050346;0.287;9.392;-2.231;0.002;-0.001;-0.001;
20190925_050346;0.347;9.385;-2.195;-0.004;-0.000;0.000;
20190925_050346;0.357;9.366;-2.210;0.002;0.002;-0.001;
20190925_050347;0.261;9.354;-2.205;-0.001;0.001;0.000;
20190925_050347;0.290;9.366;-2.140;-0.002;-0.001;-0.002;
20190925_050347;0.314;9.366;-2.234;0.004;0.001;-0.003;
20190925_050347;0.376;9.402;-2.215;-0.002;-0.000;-0.001;
20190925_050347;0.314;9.378;-2.160;0.000;0.001;0.000;
20190925_050347;0.275;9.459;-2.207;0.004;-0.001;-0.002;
20190925_050347;0.333;9.440;-2.160;-0.002;-0.000;0.000;
20190925_050347;0.280;9.443;-2.282;0.002;-0.000;-0.003;
20190925_050347;0.359;9.457;-2.205;-0.004;-0.001;-0.002;
20190925_050348;0.326;9.469;-2.258;0.002;0.002;0.000;
20190925_050348;0.285;9.436;-2.231;0.000;0.001;-0.002;
20190925_050348;0.275;9.483;-2.229;-0.001;0.001;-0.001;
20190925_050348;0.328;9.409;-2.227;-0.001;0.002;-0.001;
20190925_050348;0.316;9.424;-2.207;0.001;0.002;0.000;
20190925_050348;0.318;9.436;-2.217;-0.001;0.001;-0.001;
20190925_050348;0.283;9.402;-2.212;-0.002;0.001;-0.002;
20190925_050348;0.280;9.397;-2.248;0.000;0.001;0.000;
20190925_050348;0.225;9.443;-2.227;0.001;0.001;0.002;
20190925_050349;0.268;9.414;-2.251;0.000;0.003;0.002;
20190925_050349;0.290;9.364;-2.203;-0.002;-0.000;0.002;
20190925_050349;0.259;9.431;-2.219;-0.001;0.001;0.004;
20190925_050349;0.220;9.412;-2.243;-0.002;0.002;0.001;
20190925_050349;0.247;9.412;-2.239;0.000;0.002;0.005;
20190925_050349;0.294;9.395;-2.203;-0.001;0.001;0.002;
20190925_050349;0.268;9.400;-2.203;0.002;0.001;0.004;
20190925_050349;0.338;9.433;-2.267;0.000;0.002;0.002;
20190925_050349;0.316;9.419;-2.181;-0.003;-0.001;-0.002;
20190925_050350;0.304;9.450;-2.193;0.003;0.002;0.000;
20190925_050350;0.397;9.448;-2.239;-0.002;-0.000;-0.001;
20190925_050350;0.340;9.349;-2.229;0.001;-0.000;-0.003;
20190925_050350;0.397;9.459;-2.229;-0.002;-0.003;-0.005;
20190925_050350;0.342;9.428;-2.136;-0.002;-0.001;-0.007;
20190925_050350;0.333;9.366;-2.222;0.002;0.002;-0.004;
20190925_050350;0.388;9.416;-2.217;-0.001;0.002;-0.004;
20190925_050350;0.362;9.416;-2.210;-0.001;-0.000;-0.005;
20190925_050350;0.333;9.404;-2.200;-0.003;-0.000;-0.003;
20190925_050350;0.318;9.390;-2.195;0.001;0.002;-0.002;
20190925_050351;0.297;9.436;-2.212;0.000;0.001;-0.002;
20190925_050351;0.306;9.421;-2.164;-0.002;0.002;-0.001;
20190925_050351;0.287;9.342;-2.227;0.000;0.004;0.001;
20190925_050351;0.266;9.412;-2.241;0.000;0.002;0.002;
20190925_050351;0.271;9.493;-2.219;-0.001;0.002;0.004;
20190925_050351;0.357;9.395;-2.313;0.000;0.003;0.006;
20190925_050351;0.314;9.462;-2.229;0.001;0.002;0.005;
20190925_050351;0.318;9.488;-2.260;-0.003;0.001;0.005;
20190925_050351;0.316;9.409;-2.181;-0.003;0.001;0.004;
20190925_050352;0.259;9.443;-2.224;0.002;0.001;0.003;
20190925_050352;0.254;9.438;-2.131;-0.004;0.001;0.005;
20190925_050352;0.261;9.397;-2.241;-0.001;0.002;0.005;
20190925_050352;0.273;9.407;-2.215;0.000;0.002;0.006;
20190925_050352;0.259;9.385;-2.184;0.002;0.002;0.004;
20190925_050352;0.287;9.392;-2.227;0.002;0.000;0.003;
20190925_050352;0.223;9.366;-2.179;0.000;0.001;0.003;
20190925_050352;0.223;9.385;-2.174;0.002;-0.001;0.003;
20190925_050352;0.249;9.352;-2.203;-0.002;-0.001;-0.000;
20190925_050352;0.283;9.433;-2.184;0.002;-0.001;0.001;
20190925_050353;0.235;9.491;-2.296;0.000;-0.001;0.001;
20190925_050353;0.247;9.455;-2.222;-0.003;0.000;0.001;
20190925_050353;0.275;9.476;-2.294;0.003;0.001;0.001;
20190925_050353;0.251;9.505;-2.274;-0.003;-0.002;0.001;
20190925_050353;0.254;9.459;-2.227;0.000;-0.001;0.001;
20190925_050353;0.316;9.476;-2.193;-0.001;-0.002;0.001;
20190925_050353;0.278;9.409;-2.172;0.000;-0.003;-0.000;
20190925_050353;0.283;9.448;-2.200;-0.006;-0.002;-0.001;
20190925_050353;0.338;9.404;-2.289;-0.001;-0.004;-0.002;
20190925_050354;0.306;9.385;-2.267;0.002;-0.001;-0.002;
20190925_050354;0.297;9.400;-2.207;0.000;-0.002;-0.002;
20190925_050354;0.225;9.311;-2.152;-0.001;-0.002;-0.002;
20190925_050354;0.072;9.402;-2.114;0.007;-0.001;-0.002;
20190925_050354;0.292;9.426;-2.318;-0.003;0.001;-0.000;
20190925_050354;0.237;9.299;-2.227;-0.003;-0.002;-0.001;
20190925_050354;0.304;9.354;-2.251;-0.001;-0.004;-0.001;
20190925_050354;0.227;9.349;-2.184;-0.002;-0.001;0.001;
20190925_050354;0.280;9.424;-2.251;0.002;-0.001;0.003;
20190925_050355;0.306;9.330;-2.162;0.002;0.000;0.003;
20190925_050355;0.297;9.361;-2.150;0.002;-0.002;0.002;
20190925_050355;0.347;9.409;-2.212;0.000;-0.003;0.001;
20190925_050355;0.294;9.345;-2.246;0.002;0.000;0.002;
20190925_050355;0.213;9.395;-2.188;0.000;-0.001;0.001;
20190925_050355;0.201;9.416;-2.160;-0.001;-0.002;-0.000;
20190925_050355;0.261;9.340;-2.174;-0.001;-0.001;0.002;
20190925_050355;0.223;9.347;-2.251;0.000;0.000;0.002;
20190925_050355;0.244;9.531;-2.251;0.002;-0.002;-0.000;
20190925_050355;0.251;9.457;-2.251;0.000;-0.002;-0.002;
20190925_050356;0.208;9.548;-2.251;0.004;-0.003;-0.002;
20190925_050356;0.251;9.538;-2.301;0.003;-0.003;-0.001;
20190925_050356;0.340;9.436;-2.203;-0.001;-0.002;-0.002;
20190925_050356;0.347;9.546;-2.243;0.002;-0.003;-0.002;
20190925_050356;0.395;9.416;-2.258;-0.002;-0.003;-0.002;
20190925_050356;0.407;9.349;-2.179;-0.003;-0.002;-0.005;
20190925_050356;0.429;9.333;-2.179;-0.001;-0.002;-0.004;
20190925_050356;0.359;9.345;-2.198;-0.002;-0.003;-0.007;
20190925_050356;0.400;9.380;-2.219;0.002;-0.001;-0.007;
20190925_050356;0.321;9.342;-2.172;0.003;0.000;-0.005;
20190925_050357;0.359;9.369;-2.205;0.000;-0.002;-0.005;
20190925_050357;0.560;9.345;-2.229;-0.005;-0.001;-0.005;
20190925_050357;0.328;9.371;-2.260;0.005;0.000;-0.002;
20190925_050357;0.261;9.493;-2.227;0.002;0.000;-0.002;
20190925_050357;0.330;9.366;-2.203;-0.002;0.001;0.001;
20190925_050357;0.309;9.412;-2.212;0.000;0.001;-0.000;
20190925_050357;0.275;9.378;-2.222;0.002;0.002;0.003;
20190925_050357;0.237;9.359;-2.121;0.000;0.001;0.002;
20190925_050357;0.287;9.424;-2.193;0.002;0.001;0.004;
20190925_050358;0.259;9.383;-2.265;0.000;0.000;0.002;
20190925_050358;0.263;9.431;-2.145;0.002;0.001;0.003;
20190925_050358;0.299;9.371;-2.145;-0.001;0.001;0.003;
20190925_050358;0.287;9.349;-2.224;0.002;0.003;0.002;
20190925_050358;0.273;9.395;-2.172;0.002;0.001;0.002;
20190925_050358;0.311;9.448;-2.231;0.002;0.000;0.002;
20190925_050358;0.275;9.510;-2.224;-0.001;0.001;0.001;
20190925_050358;0.294;9.428;-2.229;-0.001;0.001;0.001;
20190925_050358;0.285;9.431;-2.222;0.000;0.000;-0.000;
20190925_050359;0.294;9.464;-2.212;0.000;0.000;0.001;
20190925_050359;0.292;9.409;-2.181;-0.002;0.001;-0.000;
20190925_050359;0.292;9.392;-2.227;0.000;0.000;-0.001;
20190925_050359;0.292;9.419;-2.243;-0.002;-0.001;-0.002;
20190925_050359;0.290;9.438;-2.200;0.000;-0.001;-0.002;
20190925_050359;0.249;9.486;-2.258;0.002;0.000;-0.001;
20190925_050359;0.328;9.471;-2.239;0.003;0.000;0.001;
20190925_050359;0.251;9.378;-2.162;-0.004;-0.001;-0.000;
20190925_050359;0.232;9.483;-2.222;0.003;0.000;-0.001;
20190925_050359;0.254;9.488;-2.155;-0.001;0.000;-0.000;
20190925_050400;0.244;9.471;-2.272;0.000;-0.001;-0.000;
20190925_050400;0.204;9.524;-2.303;0.005;-0.001;0.001;
20190925_050400;0.275;9.483;-2.138;0.003;0.000;0.002;
20190925_050400;0.302;9.373;-2.164;-0.002;0.000;0.002;
20190925_050400;0.290;9.369;-2.195;-0.002;-0.002;0.002;
20190925_050400;0.259;9.373;-2.195;0.002;0.000;0.004;
20190925_050400;0.192;9.404;-2.188;-0.001;0.000;0.004;
20190925_050400;0.201;9.409;-2.219;-0.002;0.000;0.006;
20190925_050400;0.256;9.354;-2.195;0.002;0.000;0.007;
20190925_050400;0.230;9.397;-2.162;-0.002;-0.002;0.006;
20190925_050401;0.283;9.294;-2.212;-0.001;-0.001;0.004;
20190925_050401;0.314;9.285;-2.198;0.000;-0.002;0.002;
20190925_050401;0.357;9.299;-2.169;-0.001;-0.003;-0.000;
20190925_050401;0.362;9.364;-2.198;0.002;-0.001;-0.001;
20190925_050401;0.335;9.337;-2.207;0.000;-0.002;-0.004;
20190925_050401;0.299;9.275;-2.251;-0.002;-0.002;-0.002;
20190925_050401;0.364;9.316;-2.205;0.003;-0.001;-0.002;
20190925_050401;0.345;9.311;-2.205;-0.002;-0.001;-0.002;
20190925_050401;0.302;9.244;-2.167;0.003;0.000;-0.000;
20190925_050402;0.275;9.275;-2.205;0.001;-0.001;-0.005;
20190925_050402;0.323;9.369;-2.195;-0.001;-0.000;-0.006;
20190925_050402;0.340;9.364;-2.255;0.007;-0.000;-0.004;
20190925_050402;0.314;9.479;-2.251;0.000;-0.000;-0.004;
20190925_050402;0.323;9.397;-2.212;-0.003;-0.001;-0.005;
20190925_050402;0.302;9.409;-2.272;0.001;-0.000;-0.006;
20190925_050402;0.290;9.414;-2.205;0.000;-0.000;-0.006;
20190925_050402;0.297;9.503;-2.258;0.001;0.001;-0.001;
20190925_050402;0.266;9.457;-2.227;-0.001;-0.000;-0.002;
20190925_050403;0.192;9.426;-2.198;-0.001;-0.000;-0.002;
20190925_050403;0.251;9.438;-2.236;0.003;0.001;0.001;
20190925_050403;0.316;9.574;-2.231;0.002;-0.001;-0.001;
20190925_050403;0.266;9.433;-2.205;-0.001;-0.000;-0.002;
20190925_050403;0.359;9.299;-2.236;-0.003;-0.000;-0.003;
20190925_050403;0.285;9.385;-2.229;-0.002;-0.001;-0.005;
20190925_050403;0.285;9.443;-2.255;0.002;-0.000;-0.001;
20190925_050403;0.256;9.421;-2.270;0.000;-0.001;0.001;
20190925_050403;0.316;9.388;-2.181;-0.002;-0.000;0.002;
20190925_050404;0.306;9.380;-2.217;0.001;0.002;0.003;
20190925_050404;0.369;9.400;-2.193;-0.001;-0.000;0.000;
20190925_050404;0.359;9.275;-2.195;0.000;0.001;0.002;
20190925_050404;0.261;9.282;-2.193;0.000;0.001;-0.002;
20190925_050404;0.225;9.304;-2.145;-0.003;-0.000;-0.003;
20190925_050404;0.271;9.325;-2.248;0.001;-0.000;-0.002;
20190925_050404;0.268;9.488;-2.251;-0.001;-0.002;-0.004;
20190925_050404;0.242;9.464;-2.215;0.001;-0.000;-0.004;
20190925_050404;0.206;9.510;-2.267;0.001;-0.001;-0.003;
20190925_050404;0.285;9.471;-2.215;0.000;-0.001;-0.003;
20190925_050405;0.275;9.610;-2.222;0.001;-0.001;-0.002;
20190925_050405;0.251;9.668;-2.303;0.001;-0.000;-0.002;
20190925_050405;0.247;9.553;-2.282;-0.004;-0.002;-0.001;
20190925_050405;0.211;9.507;-2.222;-0.002;-0.001;0.000;
20190925_050405;0.318;9.464;-2.274;-0.001;-0.001;0.000;
20190925_050405;0.218;9.476;-2.191;-0.005;-0.001;-0.001;
20190925_050405;0.340;9.400;-2.279;-0.002;-0.001;0.000;
20190925_050405;0.314;9.316;-2.248;-0.003;-0.002;0.001;
20190925_050405;0.314;9.270;-2.133;-0.002;-0.000;0.003;
20190925_050406;0.350;9.285;-2.229;0.001;-0.002;-0.001;
20190925_050406;0.306;9.242;-2.157;-0.003;-0.002;-0.003;
20190925_050406;0.278;9.244;-2.162;0.001;-0.001;-0.003;
20190925_050406;0.376;9.292;-2.210;-0.002;-0.003;-0.004;
20190925_050406;0.316;9.258;-2.174;0.001;-0.001;-0.003;
20190925_050406;0.321;9.256;-2.203;0.001;-0.002;-0.005;
20190925_050406;0.247;9.225;-2.212;-0.002;-0.001;-0.005;
20190925_050406;0.225;9.299;-2.200;0.002;-0.000;-0.001;
20190925_050406;0.357;9.309;-2.205;0.000;-0.000;0.001;
20190925_050407;0.268;9.385;-2.184;0.001;0.002;0.007;
20190925_050407;0.213;9.239;-2.169;-0.003;-0.000;0.004;
20190925_050407;0.275;9.189;-2.181;-0.003;0.001;0.003;
20190925_050407;0.208;9.373;-2.251;0.003;0.001;0.002;
20190925_050407;0.204;9.325;-2.191;-0.002;-0.001;0.003;
20190925_050407;0.278;9.457;-2.227;0.004;-0.000;0.002;
20190925_050407;0.204;9.359;-2.229;0.000;-0.002;0.001;
20190925_050407;0.275;9.258;-2.179;-0.001;-0.001;-0.001;
20190925_050407;0.292;9.244;-2.195;0.001;-0.002;-0.002;
20190925_050408;0.335;9.395;-2.243;-0.001;-0.003;-0.003;
20190925_050408;0.259;9.443;-2.229;-0.001;-0.003;-0.004;
20190925_050408;0.309;9.407;-2.248;0.000;-0.001;-0.002;
20190925_050408;0.345;9.395;-2.210;-0.002;-0.000;-0.001;
20190925_050408;0.314;9.412;-2.203;-0.001;-0.000;-0.001;
20190925_050408;0.254;9.306;-2.186;-0.001;-0.001;0.001;
20190925_050408;0.223;9.258;-2.140;-0.002;-0.002;0.002;
20190925_050408;0.388;9.199;-2.114;0.000;-0.001;0.000;
20190925_050408;0.362;9.285;-2.205;-0.002;-0.003;-0.004;
20190925_050408;0.299;9.445;-2.263;0.001;-0.003;-0.007;
20190925_050409;0.345;9.486;-2.260;0.001;-0.003;-0.006;
20190925_050409;0.256;9.491;-2.310;-0.002;-0.002;-0.007;
20190925_050409;0.247;9.479;-2.231;-0.004;-0.002;-0.005;
20190925_050409;0.283;9.452;-2.272;0.001;-0.002;-0.005;
20190925_050409;0.302;9.550;-2.342;-0.001;-0.001;-0.004;
20190925_050409;0.359;9.395;-2.215;-0.004;-0.002;-0.004;
20190925_050409;0.311;9.230;-2.198;-0.005;-0.003;-0.004;
20190925_050409;0.306;9.196;-2.193;0.002;-0.001;-0.003;
20190925_050409;0.287;9.230;-2.140;-0.001;-0.002;-0.002;
20190925_050410;0.352;9.357;-2.270;0.000;-0.001;-0.002;
20190925_050410;0.362;9.352;-2.174;-0.001;-0.002;-0.005;
20190925_050410;0.388;9.440;-2.124;0.001;-0.002;-0.008;
20190925_050410;0.371;9.369;-2.265;-0.001;-0.002;-0.007;
20190925_050410;0.330;9.376;-2.131;-0.002;-0.001;-0.007;
20190925_050410;0.309;9.309;-2.203;-0.004;-0.001;-0.007;
20190925_050410;0.455;9.268;-2.234;0.000;-0.002;-0.010;
20190925_050410;0.373;9.457;-2.255;0.001;-0.001;-0.012;
20190925_050410;0.352;9.479;-2.200;-0.004;-0.002;-0.013;
20190925_050411;0.259;9.469;-2.308;-0.003;-0.001;-0.015;
20190925_050411;0.199;9.550;-2.306;0.003;-0.000;-0.009;
20190925_050411;0.304;9.436;-2.212;-0.003;-0.000;-0.004;
20190925_050411;0.211;9.445;-2.217;-0.001;0.001;0.001;
20190925_050411;0.223;9.400;-2.303;0.001;0.001;0.004;
20190925_050411;0.220;9.325;-2.195;-0.001;-0.000;0.007;
20190925_050411;0.251;9.304;-2.203;0.001;0.002;0.011;
20190925_050411;0.215;9.124;-2.205;-0.004;0.002;0.011;
20190925_050411;0.292;9.105;-2.076;0.000;0.001;0.009;
20190925_050411;0.072;9.062;-2.203;-0.006;0.002;0.008;
20190925_050412;0.302;9.244;-2.385;0.009;-0.000;0.002;
20190925_050412;0.376;9.246;-2.181;-0.001;-0.000;0.002;
20190925_050412;0.409;9.225;-2.172;-0.001;-0.002;-0.002;
20190925_050412;0.323;9.306;-2.112;-0.002;-0.000;0.000;
20190925_050412;0.412;9.378;-2.222;-0.001;-0.001;-0.003;
20190925_050412;0.294;9.416;-2.243;-0.002;0.001;0.001;
20190925_050412;0.350;9.433;-2.267;-0.001;0.003;-0.003;
20190925_050412;0.340;9.316;-2.272;0.010;-0.003;-0.013;
20190925_050412;0.283;9.206;-2.133;-0.003;-0.004;-0.006;
20190925_050412;0.352;9.459;-2.306;0.001;0.001;-0.006;
20190925_050413;0.357;9.567;-2.351;0.002;-0.000;-0.005;
20190925_050413;0.297;9.340;-2.176;-0.004;-0.003;-0.008;
20190925_050413;0.275;9.498;-2.236;0.001;0.001;-0.003;
20190925_050413;0.192;9.318;-2.219;-0.005;0.004;-0.002;
20190925_050413;0.204;9.349;-2.191;-0.004;0.003;0.006;
20190925_050413;0.081;9.354;-2.210;-0.001;-0.002;0.000;
20190925_050413;0.129;9.388;-2.301;0.002;-0.000;0.002;
20190925_050413;0.297;9.373;-2.145;0.000;-0.000;0.003;
20190925_050413;0.227;9.354;-2.243;-0.004;-0.001;0.002;
20190925_050414;0.306;9.270;-2.217;0.001;-0.002;0.001;
20190925_050414;0.390;9.187;-2.260;-0.006;-0.000;0.002;
20190925_050414;0.261;9.177;-2.069;-0.002;-0.001;0.000;
20190925_050414;0.412;9.328;-2.229;0.002;-0.001;0.000;
20190925_050414;0.443;9.395;-2.205;-0.002;-0.003;0.000;
20190925_050414;0.357;9.720;-2.284;0.002;-0.001;0.001;
20190925_050414;0.328;9.713;-2.444;0.004;-0.003;-0.004;
20190925_050414;0.354;9.850;-2.308;-0.001;-0.003;-0.007;
20190925_050414;0.362;9.689;-2.313;0.001;0.001;-0.005;
20190925_050414;0.335;9.491;-2.313;-0.004;-0.001;-0.008;
20190925_050415;0.306;9.409;-2.193;-0.006;0.001;-0.008;
20190925_050415;0.196;9.536;-2.294;0.000;0.001;-0.003;
20190925_050415;0.254;9.529;-2.320;-0.005;-0.001;-0.005;
20190925_050415;0.189;9.175;-2.136;-0.003;-0.001;-0.005;
20190925_050415;0.244;9.110;-2.191;-0.001;-0.001;-0.001;
20190925_050415;0.383;9.100;-2.200;0.002;0.003;0.000;
20190925_050415;0.299;9.232;-2.107;-0.003;-0.000;0.004;
20190925_050415;0.357;9.395;-2.258;0.000;0.001;0.003;
20190925_050415;0.211;9.191;-2.193;0.002;0.002;0.001;
20190925_050416;0.192;9.244;-2.093;0.001;0.002;0.002;
20190925_050416;0.175;9.067;-2.200;0.002;0.001;0.002;
20190925_050416;0.266;9.244;-2.128;-0.001;-0.000;0.001;
20190925_050416;0.148;9.201;-2.140;-0.001;-0.002;-0.002;
20190925_050416;0.168;9.232;-2.313;0.003;-0.001;0.001;
20190925_050416;0.199;9.155;-2.169;-0.002;-0.000;0.002;
20190925_050416;0.163;9.139;-2.071;0.000;-0.000;0.008;
20190925_050416;0.199;9.531;-2.289;0.006;-0.001;0.001;
20190925_050416;0.199;9.361;-2.291;-0.001;-0.002;0.004;
20190925_050417;0.340;9.242;-2.195;-0.004;-0.001;0.011;
20190925_050417;0.405;9.251;-2.358;0.006;-0.002;0.002;
20190925_050417;0.385;9.433;-2.315;0.001;-0.002;0.001;
20190925_050417;0.563;9.579;-2.286;0.000;-0.004;-0.008;
20190925_050417;0.493;9.620;-2.356;-0.001;-0.002;-0.009;
20190925_050417;0.412;9.467;-2.284;-0.003;-0.001;-0.008;
20190925_050417;0.431;9.431;-2.227;-0.003;-0.000;-0.009;
20190925_050417;0.249;9.701;-2.339;0.006;-0.003;-0.013;
20190925_050417;0.117;9.926;-2.406;0.004;-0.006;-0.014;
20190925_050417;0.093;9.804;-2.337;-0.005;0.004;0.001;
20190925_050418;0.132;9.455;-2.234;-0.001;0.002;0.003;
20190925_050418;0.206;9.210;-2.176;-0.005;-0.001;0.007;
20190925_050418;0.426;9.158;-2.253;-0.005;0.003;0.012;
20190925_050418;0.340;9.433;-2.191;0.004;-0.002;-0.002;
20190925_050418;0.199;9.155;-2.258;-0.003;-0.003;-0.002;
20190925_050418;0.438;8.837;-2.107;-0.002;-0.000;-0.002;
20190925_050418;0.472;8.950;-2.081;0.001;-0.004;-0.010;
20190925_050418;0.441;9.213;-2.205;0.003;-0.002;-0.009;
20190925_050418;0.362;9.120;-2.179;-0.003;-0.001;-0.010;
20190925_050419;0.522;9.258;-2.145;0.002;-0.001;-0.012;
20190925_050419;0.522;9.120;-2.186;0.000;-0.002;-0.012;
20190925_050419;0.481;9.148;-2.148;0.000;0.001;-0.012;
20190925_050419;0.397;9.189;-2.112;0.000;-0.000;-0.009;
20190925_050419;0.290;9.088;-2.133;0.008;-0.001;-0.008;
20190925_050419;0.321;9.392;-2.219;0.004;0.004;-0.001;
20190925_050419;0.189;9.390;-2.143;-0.008;0.007;0.007;
20190925_050419;0.074;9.380;-2.131;-0.002;0.002;0.007;
20190925_050419;0.067;9.493;-2.332;0.003;0.003;0.009;
20190925_050419;0.180;9.505;-2.351;-0.003;0.004;0.012;
20190925_050420;0.244;9.318;-2.248;0.000;-0.000;0.012;
20190925_050420;0.393;9.335;-2.167;-0.001;0.003;0.010;
20190925_050420;0.448;9.294;-2.260;0.000;-0.001;-0.003;
20190925_050420;0.421;9.445;-2.258;-0.001;-0.001;-0.005;
20190925_050420;0.342;9.474;-2.162;0.000;-0.002;-0.009;
20190925_050420;0.177;9.483;-2.198;-0.001;-0.001;-0.006;
20190925_050420;0.177;9.414;-2.255;-0.002;-0.002;-0.009;
20190925_050420;0.486;9.280;-2.167;-0.007;-0.001;-0.007;
20190925_050420;0.405;9.222;-2.236;0.001;-0.003;-0.007;
20190925_050421;0.201;9.172;-2.140;-0.001;-0.000;-0.003;
20190925_050421;0.271;9.158;-2.152;-0.002;0.001;-0.002;
20190925_050421;0.215;9.208;-2.148;-0.001;0.002;0.002;
20190925_050421;0.436;9.246;-2.179;-0.001;0.002;0.003;
20190925_050421;0.297;9.254;-2.205;-0.002;0.002;0.007;
20190925_050421;0.113;9.606;-2.241;0.004;0.002;0.007;
20190925_050421;0.192;9.809;-2.387;0.002;0.001;-0.001;
20190925_050421;0.029;9.754;-2.303;-0.003;0.001;0.000;
20190925_050421;0.148;9.701;-2.387;0.001;0.001;0.006;
20190925_050422;0.239;9.440;-2.258;0.000;-0.002;0.002;
20190925_050422;0.287;9.474;-2.167;0.000;-0.000;0.006;
20190925_050422;0.287;9.318;-2.320;-0.002;-0.000;0.006;
20190925_050422;0.409;9.357;-2.224;-0.003;-0.002;0.001;
20190925_050422;0.242;9.495;-2.279;0.003;-0.001;0.001;
20190925_050422;0.364;9.220;-2.215;-0.005;-0.003;-0.001;
20190925_050422;0.338;9.256;-2.172;-0.002;-0.001;-0.001;
20190925_050422;0.201;9.467;-2.428;0.002;-0.004;-0.001;
20190925_050422;0.242;9.522;-2.361;-0.002;-0.001;-0.001;
20190925_050423;0.213;9.507;-2.071;-0.002;-0.001;-0.001;
20190925_050423;0.206;9.546;-2.306;-0.001;-0.002;0.000;
20190925_050423;0.261;9.606;-2.313;-0.002;-0.002;-0.001;
20190925_050423;0.244;9.538;-2.365;0.000;-0.002;-0.001;
20190925_050423;0.333;9.388;-2.255;-0.003;-0.003;-0.001;
20190925_050423;0.381;9.335;-2.136;-0.006;-0.002;-0.001;
20190925_050423;0.464;9.153;-2.126;-0.003;-0.002;-0.004;
20190925_050423;0.467;9.309;-2.298;-0.001;-0.002;-0.006;
20190925_050423;0.347;9.371;-2.322;0.002;-0.003;-0.009;
20190925_050423;0.304;9.311;-2.176;-0.001;-0.003;-0.010;
20190925_050424;0.395;9.290;-2.217;-0.002;-0.000;-0.007;
20190925_050424;0.309;9.215;-2.138;-0.001;-0.002;-0.008;
20190925_050424;0.338;9.345;-2.210;0.002;-0.000;-0.005;
20190925_050424;0.366;9.328;-2.164;-0.001;0.002;0.002;
20190925_050424;0.436;9.469;-2.236;0.000;0.001;0.000;
20190925_050424;0.333;9.474;-2.313;-0.001;0.002;0.002;
20190925_050424;0.383;9.622;-2.310;0.004;0.001;-0.002;
20190925_050424;0.273;9.369;-2.239;-0.006;0.001;0.001;
20190925_050424;0.254;9.464;-2.313;0.001;0.001;-0.002;
20190925_050425;0.225;9.428;-2.224;0.000;0.002;-0.001;
20190925_050425;0.213;9.515;-2.294;-0.001;0.002;0.001;
20190925_050425;0.328;9.627;-2.373;0.000;-0.000;0.000;
20190925_050425;0.280;9.586;-2.375;0.002;-0.000;-0.002;
20190925_050425;0.294;9.685;-2.286;0.000;-0.000;-0.002;
20190925_050425;0.244;9.455;-2.205;-0.004;-0.000;-0.003;
20190925_050425;0.271;9.287;-2.296;-0.002;-0.001;-0.007;
20190925_050425;0.134;9.380;-2.241;-0.001;-0.000;-0.006;
20190925_050425;0.249;9.455;-2.152;-0.001;-0.002;-0.005;
20190925_050426;0.129;9.471;-2.195;0.001;-0.001;0.000;
20190925_050426;0.156;9.433;-2.260;0.000;-0.001;0.009;
20190925_050426;0.441;9.510;-2.215;-0.004;0.001;0.010;
20190925_050426;0.412;9.278;-2.231;0.000;0.001;0.010;
20190925_050426;0.515;9.400;-2.253;-0.002;-0.001;0.003;
20190925_050426;0.429;9.392;-2.277;0.004;-0.000;-0.004;
20190925_050426;0.390;9.462;-2.349;0.001;-0.000;-0.007;
20190925_050426;0.347;9.553;-2.179;0.002;-0.000;-0.007;
20190925_050426;0.354;9.584;-2.241;0.001;-0.001;-0.006;
20190925_050426;0.309;9.515;-2.212;0.000;-0.002;-0.007;
20190925_050427;0.364;9.428;-2.284;-0.001;-0.002;-0.007;
20190925_050427;0.362;9.546;-2.277;-0.001;0.001;-0.008;
20190925_050427;0.192;9.225;-2.227;-0.001;-0.000;-0.005;
20190925_050427;0.194;9.208;-2.073;-0.002;0.001;-0.002;
20190925_050427;0.120;9.029;-2.181;-0.003;0.001;0.001;
20190925_050427;0.177;9.091;-2.116;-0.001;0.002;0.004;
20190925_050427;0.275;8.830;-2.093;0.000;0.001;0.007;
20190925_050427;0.359;9.146;-2.217;0.004;-0.000;0.001;
20190925_050427;0.371;9.258;-2.150;0.000;-0.000;0.000;
20190925_050428;0.359;9.160;-2.193;-0.003;-0.000;-0.005;
20190925_050428;0.385;9.232;-2.203;0.002;-0.000;-0.004;
20190925_050428;0.302;9.450;-2.248;0.002;-0.001;-0.006;
20190925_050428;0.345;9.567;-2.303;0.000;-0.000;-0.007;
20190925_050428;0.242;9.577;-2.272;-0.001;-0.000;-0.007;
20190925_050428;0.129;9.622;-2.291;0.002;-0.000;-0.004;
20190925_050428;0.371;9.419;-2.200;-0.003;-0.000;-0.002;
20190925_050428;0.369;9.529;-2.265;0.002;-0.001;-0.002;
20190925_050428;0.223;9.474;-2.284;-0.003;0.001;-0.003;
20190925_050429;0.316;9.538;-2.248;-0.001;-0.000;-0.004;
20190925_050429;0.333;9.498;-2.303;-0.002;-0.000;-0.001;
20190925_050429;0.187;9.359;-2.217;-0.001;0.001;-0.001;
20190925_050429;0.182;9.172;-2.066;-0.005;0.001;0.003;
20190925_050429;0.213;9.091;-2.195;-0.001;0.002;0.004;
20190925_050429;0.180;9.153;-2.193;-0.001;0.001;0.003;
20190925_050429;0.172;9.108;-2.114;0.000;-0.001;0.004;
20190925_050429;0.189;9.103;-2.164;0.002;-0.001;0.003;
20190925_050429;0.271;9.172;-2.181;0.001;-0.001;0.001;
20190925_050429;0.230;9.299;-2.140;0.002;-0.003;-0.001;
20190925_050430;0.280;9.177;-2.203;-0.002;-0.002;0.000;
20190925_050430;0.400;9.143;-2.284;0.002;-0.001;-0.002;
20190925_050430;0.362;9.364;-2.186;0.004;-0.001;-0.002;
20190925_050430;0.318;9.304;-2.222;0.000;-0.003;-0.003;
20190925_050430;0.271;9.318;-2.210;-0.001;-0.001;-0.004;
20190925_050430;0.318;9.206;-2.164;-0.001;-0.002;-0.003;
20190925_050430;0.342;9.361;-2.184;0.002;-0.003;-0.008;
20190925_050430;0.359;9.333;-2.258;-0.002;-0.002;-0.006;
20190925_050430;0.309;9.311;-2.224;-0.003;-0.002;-0.006;
20190925_050431;0.321;9.278;-2.253;0.000;-0.001;-0.005;
20190925_050431;0.278;9.263;-2.188;-0.001;-0.000;-0.006;
20190925_050431;0.316;9.086;-2.131;-0.004;-0.000;-0.003;
20190925_050431;0.223;9.268;-2.193;0.001;-0.000;0.000;
20190925_050431;0.242;9.376;-2.174;0.001;0.001;0.000;
20190925_050431;0.141;9.194;-2.150;-0.004;0.001;0.002;
20190925_050431;0.263;9.222;-2.210;0.003;-0.001;0.003;
20190925_050431;0.254;9.541;-2.251;0.004;-0.001;0.003;
20190925_050431;0.266;9.685;-2.308;0.001;-0.001;0.003;
20190925_050432;0.376;9.639;-2.291;0.000;-0.002;0.001;
20190925_050432;0.314;9.555;-2.332;0.000;-0.000;0.003;
20190925_050432;0.316;9.565;-2.284;-0.001;-0.001;0.003;
20190925_050432;0.172;9.601;-2.330;-0.003;-0.001;0.003;
20190925_050432;0.292;9.335;-2.279;-0.002;-0.000;0.006;
20190925_050432;0.345;9.388;-2.121;-0.001;-0.003;-0.002;
20190925_050432;0.345;9.337;-2.315;-0.002;-0.001;-0.003;
20190925_050432;0.421;9.325;-2.286;-0.005;-0.003;-0.006;
20190925_050432;0.429;9.237;-2.234;0.000;-0.001;-0.005;
20190925_050432;0.357;9.287;-2.241;-0.001;-0.001;-0.002;
20190925_050433;0.328;9.158;-2.157;-0.001;-0.000;-0.006;
20190925_050433;0.206;9.380;-2.222;0.000;-0.002;-0.004;
20190925_050433;0.249;9.309;-2.263;0.000;-0.000;-0.003;
20190925_050433;0.201;9.222;-2.184;-0.003;-0.002;-0.007;
20190925_050433;0.249;9.122;-2.145;-0.003;-0.003;-0.006;
20190925_050433;0.498;9.402;-2.313;0.002;-0.001;-0.006;
20190925_050433;0.275;9.359;-2.219;0.001;-0.002;-0.002;
20190925_050433;0.283;9.316;-2.229;-0.002;-0.003;-0.003;
20190925_050433;0.354;9.151;-2.128;-0.001;-0.000;-0.004;
20190925_050434;0.369;9.230;-2.227;0.002;-0.000;-0.005;
20190925_050434;0.381;9.131;-2.116;0.000;-0.001;-0.007;
20190925_050434;0.443;8.890;-2.150;0.000;-0.000;-0.007;
20190925_050434;0.299;9.093;-2.258;0.001;0.001;-0.007;
20190925_050434;0.220;9.550;-2.270;0.003;-0.002;-0.009;
20190925_050434;0.175;9.680;-2.401;-0.001;-0.001;-0.013;
20190925_050434;0.438;9.134;-2.040;-0.006;-0.000;-0.008;
20190925_050434;0.235;9.357;-2.267;-0.001;-0.002;-0.008;
20190925_050434;0.388;9.488;-2.325;-0.002;-0.001;-0.007;
20190925_050435;0.280;9.438;-2.270;-0.003;0.001;-0.004;
20190925_050435;0.359;9.414;-2.318;-0.002;0.001;-0.001;
20190925_050435;0.318;9.201;-2.172;-0.003;0.002;-0.002;
20190925_050435;0.204;9.534;-2.263;0.003;0.001;-0.001;
20190925_050435;0.127;9.443;-2.248;-0.001;0.002;0.007;
20190925_050435;0.338;9.445;-2.188;-0.004;0.003;0.008;
20190925_050435;0.273;9.234;-2.279;-0.001;0.002;0.008;
20190925_050435;0.259;9.220;-2.210;0.000;0.001;0.007;
20190925_050435;0.338;9.364;-2.298;0.000;0.003;0.007;
20190925_050436;0.371;9.301;-2.164;-0.002;0.001;0.007;
20190925_050436;0.342;9.184;-2.186;-0.001;-0.000;0.000;
20190925_050436;0.306;9.213;-2.212;0.000;0.002;0.002;
20190925_050436;0.268;9.304;-2.148;-0.003;0.001;-0.001;
20190925_050436;0.129;9.510;-2.260;0.006;0.003;0.002;
20190925_050436;0.199;9.620;-2.315;0.002;0.001;0.006;
20190925_050436;0.261;9.534;-2.274;-0.003;0.001;0.007;
20190925_050436;0.271;9.340;-2.301;-0.001;0.001;0.006;
20190925_050436;0.256;9.503;-2.234;0.003;-0.000;0.002;
20190925_050437;0.156;9.373;-2.164;-0.002;-0.000;0.008;
20190925_050437;0.275;9.373;-2.136;0.001;-0.000;0.007;
20190925_050437;0.366;9.285;-2.219;-0.004;-0.001;0.002;
20190925_050437;0.522;9.158;-2.243;-0.005;-0.003;-0.004;
20190925_050437;0.493;9.242;-2.131;0.001;-0.000;-0.005;
20190925_050437;0.512;9.412;-2.215;0.000;-0.004;-0.015;
20190925_050437;0.362;9.507;-2.334;0.000;-0.002;-0.015;
20190925_050437;0.328;9.491;-2.258;-0.001;-0.001;-0.017;
20190925_050437;0.338;9.378;-2.274;-0.002;-0.002;-0.015;
20190925_050437;0.115;9.577;-2.320;0.002;0.001;-0.007;
20190925_050438;0.134;9.414;-2.277;-0.002;0.001;-0.002;
20190925_050438;0.132;9.340;-2.291;-0.001;0.001;0.001;
20190925_050438;0.223;9.172;-2.105;-0.003;0.001;0.004;
20190925_050438;0.299;9.081;-2.200;0.002;-0.000;0.001;
20190925_050438;0.476;9.294;-2.286;0.001;-0.000;0.001;
20190925_050438;0.285;9.278;-2.222;0.000;0.001;-0.004;
20190925_050438;0.045;9.371;-2.241;0.003;-0.002;-0.004;
20190925_050438;0.218;9.515;-2.313;0.001;-0.001;-0.002;
20190925_050438;0.261;9.546;-2.315;-0.001;-0.001;-0.001;
20190925_050439;0.290;9.488;-2.255;-0.001;-0.001;-0.001;
20190925_050439;0.321;9.464;-2.231;0.000;-0.001;0.001;
20190925_050439;0.395;9.354;-2.274;-0.006;-0.004;-0.003;
20190925_050439;0.153;9.450;-2.246;-0.003;-0.005;-0.007;
20190925_050439;0.163;9.438;-2.231;0.000;-0.000;-0.002;
20190925_050439;0.290;9.471;-2.176;-0.001;-0.002;0.001;
20190925_050439;0.223;9.527;-2.198;-0.001;-0.002;0.002;
20190925_050439;0.251;9.385;-2.301;-0.001;-0.005;-0.004;
20190925_050439;0.441;9.349;-2.267;-0.001;-0.003;-0.006;
20190925_050440;0.304;9.378;-2.255;0.002;-0.003;-0.007;
20190925_050440;0.426;9.440;-2.286;-0.003;-0.005;-0.008;
20190925_050440;0.397;9.371;-2.310;-0.003;-0.004;-0.009;
20190925_050440;0.263;9.474;-2.241;0.003;-0.003;-0.006;
20190925_050440;0.299;9.507;-2.282;-0.002;-0.001;-0.005;
20190925_050440;0.242;9.546;-2.282;0.000;-0.001;-0.002;
20190925_050440;0.433;9.359;-2.318;-0.003;-0.001;0.000;
20190925_050440;0.244;9.507;-2.284;0.004;-0.000;-0.001;
20190925_050440;0.242;9.481;-2.210;-0.001;-0.001;0.002;
20190925_050440;0.218;9.380;-2.260;0.002;-0.001;-0.002;
20190925_050441;0.249;9.421;-2.217;-0.001;-0.000;0.003;
20190925_050441;0.340;9.321;-2.224;-0.001;-0.002;-0.002;
20190925_050441;0.405;9.503;-2.282;0.002;-0.001;-0.001;
20190925_050441;0.455;9.210;-2.136;-0.002;-0.001;-0.004;
20190925_050441;0.376;9.067;-2.143;0.000;-0.003;-0.010;
20190925_050441;0.467;9.340;-2.152;0.007;-0.002;-0.009;
20190925_050441;0.359;9.246;-2.162;-0.001;-0.002;-0.010;
20190925_050441;0.314;9.481;-2.310;0.001;-0.000;-0.005;
20190925_050441;0.362;9.615;-2.433;-0.002;0.001;-0.003;
20190925_050442;0.180;9.756;-2.351;-0.002;0.001;-0.004;
20190925_050442;0.287;9.543;-2.310;-0.002;0.002;0.000;
20190925_050442;0.285;9.486;-2.303;-0.003;0.001;-0.001;
20190925_050442;0.275;9.306;-2.200;-0.008;-0.000;0.003;
20190925_050442;0.328;9.383;-2.215;-0.003;0.002;0.006;
20190925_050442;0.330;9.191;-2.227;0.000;0.003;0.007;
20190925_050442;0.316;9.122;-2.167;-0.003;-0.001;-0.003;
20190925_050442;0.345;9.160;-2.148;0.000;-0.001;-0.005;
20190925_050442;0.357;9.196;-2.212;0.003;0.002;-0.006;
20190925_050443;0.328;9.021;-2.081;-0.003;-0.001;-0.008;
20190925_050443;0.247;9.172;-2.241;-0.001;-0.000;-0.005;
20190925_050443;0.383;9.330;-2.303;-0.001;-0.000;-0.004;
20190925_050443;0.239;9.325;-2.119;-0.002;0.003;0.003;
20190925_050443;0.407;9.428;-2.365;0.001;0.001;0.000;
20190925_050443;0.251;9.369;-2.258;-0.002;0.002;0.001;
20190925_050443;0.218;9.452;-2.258;0.002;-0.001;0.000;
20190925_050443;0.225;9.546;-2.270;0.000;0.002;0.006;
20190925_050443;0.235;9.469;-2.289;0.000;0.002;0.003;
20190925_050444;0.139;9.433;-2.179;-0.001;0.002;0.002;
20190925_050444;0.139;9.306;-2.212;-0.001;0.002;0.007;
20190925_050444;0.249;9.443;-2.330;0.002;0.001;0.006;
20190925_050444;0.232;9.558;-2.274;-0.001;-0.001;0.006;
20190925_050444;0.148;9.452;-2.241;-0.005;-0.001;0.006;
20190925_050444;0.340;9.177;-2.162;-0.002;-0.000;0.004;
20190925_050444;0.369;9.225;-2.164;0.000;-0.001;0.002;
20190925_050444;0.294;9.270;-2.236;-0.001;-0.002;-0.001;
20190925_050444;0.385;9.290;-2.224;-0.001;-0.003;-0.004;
20190925_050445;0.316;9.218;-2.265;-0.003;-0.003;-0.007;
20190925_050445;0.177;9.297;-2.215;0.000;-0.002;-0.008;
20190925_050445;0.201;9.402;-2.239;0.001;-0.003;-0.002;
20190925_050445;0.290;9.337;-2.248;0.000;-0.001;0.000;
20190925_050445;0.237;9.234;-2.138;0.000;-0.003;0.000;
20190925_050445;0.268;9.239;-2.193;0.001;-0.002;0.003;
20190925_050445;0.412;9.352;-2.157;0.001;-0.000;0.002;
20190925_050445;0.510;9.469;-2.277;0.001;-0.003;0.000;
20190925_050445;0.378;9.519;-2.327;-0.001;-0.001;-0.003;
20190925_050445;0.376;9.742;-2.286;-0.001;-0.000;-0.006;
20190925_050446;0.306;9.668;-2.334;0.002;-0.001;-0.004;
20190925_050446;0.182;9.878;-2.356;-0.001;-0.000;-0.002;
20190925_050446;0.213;9.644;-2.339;-0.004;-0.000;0.004;
20190925_050446;0.239;9.527;-2.260;-0.002;0.001;0.006;
20190925_050446;0.352;9.256;-2.184;-0.007;0.001;0.004;
20190925_050446;0.381;9.213;-2.258;-0.001;-0.000;0.000;
20190925_050446;0.239;9.254;-2.219;-0.001;-0.001;0.000;
20190925_050446;0.280;9.210;-2.222;-0.003;-0.001;-0.004;
20190925_050446;0.273;9.237;-2.150;0.000;-0.000;-0.004;
20190925_050447;0.366;9.304;-2.150;0.000;-0.002;-0.003;
20190925_050447;0.328;9.220;-2.203;0.000;-0.000;-0.005;
20190925_050447;0.213;9.246;-2.229;0.002;-0.002;-0.005;
20190925_050447;0.328;9.227;-2.119;-0.001;-0.002;-0.005;
20190925_050447;0.460;9.124;-2.167;0.001;-0.001;-0.005;
20190925_050447;0.326;9.414;-2.282;0.007;-0.002;-0.010;
20190925_050447;0.177;9.661;-2.236;-0.001;-0.002;-0.007;
20190925_050447;0.134;9.503;-2.229;0.000;-0.002;-0.003;
20190925_050447;0.218;9.550;-2.286;-0.001;-0.000;0.001;
20190925_050448;0.201;9.416;-2.308;-0.001;-0.000;0.004;
20190925_050448;0.283;9.287;-2.176;-0.001;0.001;0.006;
20190925_050448;0.352;9.328;-2.186;-0.002;0.002;0.008;
20190925_050448;0.318;9.292;-2.251;-0.003;-0.000;0.008;
20190925_050448;0.318;9.273;-2.253;0.000;0.001;0.007;
20190925_050448;0.182;9.483;-2.296;0.001;0.001;0.004;
20190925_050448;0.189;9.304;-2.279;-0.003;0.001;0.006;
20190925_050448;0.136;9.383;-2.224;-0.004;0.001;0.004;
20190925_050448;0.259;9.232;-2.224;-0.003;-0.001;0.006;
20190925_050449;0.283;9.256;-2.315;-0.001;-0.002;0.001;
20190925_050449;0.316;9.153;-2.112;-0.004;-0.001;0.000;
20190925_050449;0.462;9.131;-2.169;-0.001;-0.000;0.002;
20190925_050449;0.412;9.273;-2.222;0.003;-0.002;-0.002;
20190925_050449;0.338;9.409;-2.195;0.000;-0.002;-0.008;
20190925_050449;0.151;9.562;-2.349;0.002;-0.001;-0.007;
20190925_050449;0.239;9.524;-2.296;0.001;-0.001;-0.003;
20190925_050449;0.271;9.500;-2.193;-0.002;-0.001;0.000;
20190925_050449;0.340;9.493;-2.294;0.000;-0.001;-0.001;
20190925_050449;0.357;9.467;-2.320;-0.002;-0.000;0.001;
20190925_050450;0.225;9.577;-2.239;-0.001;-0.000;0.001;
20190925_050450;0.397;9.443;-2.310;-0.001;-0.002;-0.001;
20190925_050450;0.249;9.366;-2.207;-0.004;-0.001;-0.003;
20190925_050450;0.304;8.988;-2.126;-0.003;-0.002;-0.003;
20190925_050450;0.333;8.825;-2.083;-0.004;-0.002;-0.006;
20190925_050450;0.400;8.777;-2.076;-0.005;-0.002;-0.007;
20190925_050450;0.448;8.911;-1.978;0.004;-0.003;-0.009;
20190925_050450;0.414;9.017;-2.140;-0.001;-0.002;-0.012;
20190925_050450;0.500;9.029;-2.246;0.003;-0.003;-0.015;
20190925_050451;0.452;9.278;-2.179;0.002;-0.001;-0.013;
20190925_050451;0.400;9.318;-2.224;0.001;-0.000;-0.009;
20190925_050451;0.227;9.656;-2.327;0.006;0.001;-0.007;
20190925_050451;0.160;9.795;-2.298;0.000;0.002;-0.004;
20190925_050451;0.103;9.718;-2.389;0.001;0.002;-0.002;
20190925_050451;0.120;9.589;-2.325;-0.004;0.002;0.004;
20190925_050451;0.136;9.500;-2.279;-0.001;0.002;0.004;
20190925_050451;0.333;9.685;-2.294;0.000;0.002;0.001;
20190925_050451;0.215;9.752;-2.286;-0.001;-0.000;0.001;
20190925_050451;0.165;9.555;-2.334;-0.003;-0.001;-0.001;
20190925_050452;0.062;9.392;-2.267;0.000;-0.003;0.001;
20190925_050452;0.168;9.467;-2.279;-0.001;-0.000;0.003;
20190925_050452;0.194;9.251;-2.105;-0.004;-0.002;0.001;
20190925_050452;0.273;9.213;-2.212;0.000;-0.002;0.000;
20190925_050452;0.254;9.345;-2.344;0.002;-0.001;0.001;
20190925_050452;0.259;9.153;-2.078;-0.004;-0.004;-0.001;
20190925_050452;0.405;9.187;-2.236;-0.001;-0.003;-0.004;
20190925_050452;0.294;9.304;-2.267;0.004;-0.001;-0.003;
20190925_050452;0.283;9.033;-1.997;-0.006;-0.004;-0.005;
20190925_050452;0.345;8.892;-2.078;-0.001;-0.003;-0.005;
20190925_050453;0.431;8.993;-2.102;0.001;-0.001;-0.008;
20190925_050453;0.172;9.287;-2.198;0.001;-0.005;-0.009;
20190925_050453;0.170;9.474;-2.241;0.003;-0.003;-0.012;
20190925_050453;0.194;9.627;-2.294;-0.003;-0.002;-0.006;
20190925_050453;0.275;9.313;-2.258;-0.002;-0.005;-0.006;
20190925_050453;0.333;9.175;-2.150;0.000;-0.002;-0.004;
20190925_050453;0.378;9.380;-2.313;0.002;-0.002;-0.003;
20190925_050453;0.211;9.251;-2.157;-0.005;-0.001;0.001;
20190925_050453;0.268;9.151;-2.119;-0.003;-0.002;0.000;
20190925_050454;0.321;9.153;-2.227;0.001;-0.000;0.000;
20190925_050454;0.230;9.256;-2.179;-0.001;-0.001;0.001;
20190925_050454;0.244;9.352;-2.191;0.002;-0.003;-0.001;
20190925_050454;0.297;9.347;-2.227;-0.002;-0.001;0.000;
20190925_050454;0.237;9.282;-2.251;-0.002;-0.003;-0.003;
20190925_050454;0.479;9.369;-2.215;-0.001;-0.004;-0.007;
20190925_050454;0.314;9.474;-2.203;-0.001;-0.000;-0.004;
20190925_050454;0.364;9.337;-2.277;0.001;-0.003;-0.007;
20190925_050454;0.292;9.361;-2.255;0.000;-0.000;-0.007;
20190925_050455;0.268;9.203;-2.167;-0.004;-0.001;-0.002;
20190925_050455;0.285;9.112;-2.260;-0.002;-0.001;-0.002;
20190925_050455;0.378;9.160;-2.169;-0.003;-0.000;-0.001;
20190925_050455;0.345;9.246;-2.186;0.000;-0.000;0.000;
20190925_050455;0.373;9.354;-2.272;0.002;-0.000;0.000;
20190925_050455;0.283;9.416;-2.234;-0.001;0.001;-0.002;
20190925_050455;0.476;9.443;-2.272;0.000;-0.001;0.000;
20190925_050455;0.357;9.292;-2.224;-0.001;-0.000;-0.004;
20190925_050455;0.362;9.459;-2.234;0.000;0.001;-0.003;
20190925_050455;0.316;9.383;-2.207;-0.001;0.002;-0.001;
20190925_050456;0.287;9.452;-2.255;0.002;0.001;-0.003;
20190925_050456;0.192;9.562;-2.231;0.000;0.003;-0.001;
20190925_050456;0.242;9.428;-2.301;-0.004;-0.000;0.002;
20190925_050456;0.304;9.390;-2.284;-0.007;-0.000;0.002;
20190925_050456;0.441;9.347;-2.284;-0.001;0.002;0.001;
20190925_050456;0.271;9.560;-2.234;0.001;0.001;0.001;
20190925_050456;0.184;9.469;-2.313;0.000;-0.001;0.000;
20190925_050456;0.271;9.448;-2.255;0.000;-0.000;0.000;
20190925_050456;0.256;9.464;-2.227;-0.002;-0.001;-0.001;
20190925_050457;0.376;9.306;-2.291;-0.003;-0.002;-0.004;
20190925_050457;0.247;9.369;-2.234;-0.005;-0.001;-0.003;
20190925_050457;0.433;9.452;-2.164;0.001;0.001;-0.002;
20190925_050457;0.299;9.455;-2.251;-0.002;0.001;-0.006;
20190925_050457;0.275;9.220;-2.313;-0.001;0.002;-0.002;
20190925_050457;0.180;9.536;-2.198;-0.003;0.002;-0.003;
20190925_050457;0.201;9.493;-2.200;-0.004;0.001;0.007;
20190925_050457;0.385;9.419;-2.258;0.003;0.001;0.002;
20190925_050457;0.175;9.570;-2.308;0.002;0.002;0.000;
20190925_050457;0.148;9.584;-2.332;-0.004;-0.000;0.003;
20190925_050458;0.124;9.613;-2.368;0.004;0.001;0.006;
20190925_050458;0.144;9.445;-2.172;-0.001;-0.000;0.007;
20190925_050458;0.194;9.287;-2.188;0.000;-0.000;0.008;
20190925_050458;0.199;9.328;-2.215;-0.001;-0.000;0.009;
20190925_050458;0.192;9.328;-2.188;0.003;-0.001;0.007;
20190925_050458;0.218;9.400;-2.152;-0.001;-0.001;0.009;
20190925_050458;0.237;9.232;-2.234;0.000;-0.001;0.006;
20190925_050458;0.314;9.112;-2.164;-0.002;-0.003;0.002;
20190925_050458;0.510;9.043;-2.093;0.000;-0.004;-0.005;
20190925_050459;0.551;9.134;-2.181;0.000;-0.003;-0.009;
20190925_050459;0.551;9.299;-2.265;0.001;-0.005;-0.018;
20190925_050459;0.438;9.388;-2.222;0.002;-0.004;-0.018;
20190925_050459;0.431;9.285;-2.231;-0.002;-0.003;-0.020;
20190925_050459;0.359;9.301;-2.229;-0.002;-0.003;-0.019;
20190925_050459;0.242;9.244;-2.112;0.001;-0.004;-0.018;
20190925_050459;0.232;9.076;-2.172;0.000;-0.001;-0.015;
20190925_050459;0.120;9.038;-2.059;0.001;-0.001;-0.007;
20190925_050459;0.215;9.371;-2.277;0.006;0.001;0.004;
20190925_050500;0.187;9.392;-2.274;-0.001;0.002;0.010;
20190925_050500;0.218;9.392;-2.251;-0.002;0.002;0.011;
20190925_050500;0.227;9.711;-2.373;0.004;0.003;0.012;
20190925_050500;0.330;9.809;-2.318;0.001;0.002;0.011;
20190925_050500;0.383;9.737;-2.289;0.001;-0.001;-0.001;
20190925_050500;0.053;9.402;-2.210;-0.003;-0.002;-0.007;
20190925_050500;0.323;9.390;-2.219;-0.004;-0.001;-0.006;
20190925_050500;0.230;9.340;-2.289;-0.003;-0.004;-0.007;
20190925_050500;0.271;9.323;-2.258;-0.002;-0.003;-0.005;
20190925_050501;0.323;8.976;-2.162;-0.005;-0.003;-0.005;
20190925_050501;0.412;9.215;-2.229;0.001;-0.004;-0.005;
20190925_050501;0.373;9.457;-2.198;0.004;-0.002;-0.006;
20190925_050501;0.297;9.414;-2.207;-0.004;-0.003;-0.003;
20190925_050501;0.304;9.440;-2.284;0.002;-0.003;-0.004;
20190925_050501;0.326;9.694;-2.308;0.004;-0.000;-0.004;
20190925_050501;0.362;9.558;-2.239;-0.003;-0.001;-0.001;
20190925_050501;0.340;9.673;-2.310;0.001;-0.001;-0.002;
20190925_050501;0.206;9.661;-2.303;0.001;0.001;-0.001;
20190925_050502;0.175;9.376;-2.193;-0.006;-0.000;0.002;
20190925_050502;0.256;9.328;-2.253;-0.001;0.001;0.004;
20190925_050502;0.299;9.359;-2.148;-0.002;-0.000;0.006;
20190925_050502;0.297;9.249;-2.248;-0.002;-0.000;0.006;
20190925_050502;0.266;9.297;-2.200;0.001;0.001;0.004;
20190925_050502;0.316;9.325;-2.215;0.001;-0.000;0.003;
20190925_050502;0.230;9.309;-2.234;0.001;-0.001;0.001;
20190925_050502;0.299;9.357;-2.212;0.000;-0.002;-0.001;
20190925_050502;0.350;9.261;-2.191;0.002;-0.002;-0.002;
20190925_050502;0.385;9.299;-2.136;0.001;-0.002;-0.004;
20190925_050503;0.371;9.220;-2.150;0.001;-0.003;-0.007;
20190925_050503;0.292;9.316;-2.193;0.003;-0.003;-0.009;
20190925_050503;0.376;9.392;-2.184;-0.001;-0.003;-0.009;
20190925_050503;0.436;9.251;-2.248;-0.001;-0.003;-0.010;
20190925_050503;0.378;9.392;-2.263;0.000;-0.001;-0.008;
20190925_050503;0.359;9.292;-2.167;-0.004;-0.001;-0.007;
20190925_050503;0.223;9.498;-2.284;0.002;-0.000;-0.003;
20190925_050503;0.153;9.510;-2.289;0.000;0.001;0.003;
20190925_050503;0.113;9.601;-2.251;0.000;0.001;0.004;
20190925_050504;0.141;9.519;-2.203;0.000;0.002;0.011;
20190925_050504;0.077;9.795;-2.298;-0.002;-0.000;0.011;
20190925_050504;0.160;9.708;-2.382;-0.004;0.001;0.014;
20190925_050504;0.294;9.579;-2.296;-0.003;-0.000;0.012;
20190925_050504;0.469;9.474;-2.272;-0.003;-0.002;0.007;
20190925_050504;0.479;9.187;-2.229;-0.004;0.001;-0.001;
20190925_050504;0.347;9.007;-2.081;-0.004;-0.003;-0.007;
20190925_050504;0.340;9.048;-2.203;0.000;-0.002;-0.006;
20190925_050504;0.450;9.045;-2.155;-0.002;-0.002;-0.009;
20190925_050505;0.455;9.206;-2.176;0.001;-0.003;-0.013;
20190925_050505;0.450;9.292;-2.303;0.002;-0.002;-0.013;
20190925_050505;0.397;9.349;-2.184;0.001;-0.002;-0.017;
20190925_050505;0.498;9.488;-2.239;0.003;-0.001;-0.013;
20190925_050505;0.476;9.562;-2.330;-0.001;-0.000;-0.012;
20190925_050505;0.397;9.512;-2.282;0.000;0.002;-0.007;
20190925_050505;0.144;9.510;-2.207;-0.003;0.002;-0.006;
20190925_050505;0.189;9.562;-2.368;-0.002;0.002;-0.003;
20190925_050505;0.239;9.541;-2.263;-0.001;0.003;0.001;
20190925_050506;0.220;9.608;-2.320;0.000;0.002;0.006;
20190925_050506;0.208;9.637;-2.274;-0.001;0.004;0.011;
20190925_050506;0.180;9.505;-2.279;-0.002;0.001;0.009;
20190925_050506;0.278;9.443;-2.332;-0.001;0.003;0.014;
20190925_050506;0.156;9.409;-2.231;-0.002;0.003;0.012;
20190925_050506;0.366;9.213;-2.227;-0.005;0.001;0.008;
20190925_050506;0.388;9.251;-2.274;0.002;-0.001;0.001;
20190925_050506;0.354;9.335;-2.210;-0.003;-0.001;-0.002;
20190925_050506;0.330;9.273;-2.227;-0.002;-0.001;-0.004;
20190925_050507;0.297;9.498;-2.253;0.004;-0.001;-0.005;
20190925_050507;0.304;9.529;-2.260;-0.003;-0.001;-0.003;
20190925_050507;0.199;9.560;-2.263;0.001;0.001;-0.001;
20190925_050507;0.278;9.503;-2.265;-0.001;0.001;0.001;
20190925_050507;0.285;9.357;-2.219;-0.004;0.002;0.001;
20190925_050507;0.254;9.419;-2.270;0.001;0.001;0.002;
20190925_050507;0.235;9.560;-2.277;0.002;0.001;0.002;
20190925_050507;0.096;9.546;-2.222;-0.002;0.002;0.008;
20190925_050507;0.172;9.479;-2.219;0.002;0.001;0.008;
20190925_050508;0.256;9.440;-2.320;-0.001;0.001;0.009;
20190925_050508;0.211;9.438;-2.243;0.000;-0.001;0.006;
20190925_050508;0.213;9.536;-2.325;-0.001;-0.001;0.004;
20190925_050508;0.316;9.495;-2.301;0.001;-0.002;0.003;
20190925_050508;0.299;9.371;-2.229;-0.001;-0.002;0.003;
20190925_050508;0.290;9.481;-2.260;0.001;-0.002;-0.002;
20190925_050508;0.311;9.507;-2.306;0.000;-0.002;-0.002;
20190925_050508;0.366;9.333;-2.253;0.000;-0.002;-0.002;
20190925_050508;0.340;9.481;-2.215;0.001;-0.002;-0.004;
20190925_050508;0.292;9.553;-2.320;0.002;-0.002;-0.003;
20190925_050509;0.359;9.452;-2.231;-0.001;-0.001;-0.002;
20190925_050509;0.249;9.450;-2.227;0.001;-0.001;-0.003;
20190925_050509;0.263;9.469;-2.296;0.001;-0.001;-0.002;
20190925_050509;0.211;9.503;-2.222;-0.002;-0.001;-0.002;
20190925_050509;0.321;9.400;-2.263;-0.001;0.001;0.001;
20190925_050509;0.373;9.488;-2.315;-0.001;-0.001;0.000;
20190925_050509;0.287;9.495;-2.296;-0.003;-0.001;-0.001;
20190925_050509;0.242;9.517;-2.272;0.001;-0.001;-0.004;
20190925_050509;0.318;9.483;-2.291;0.000;-0.001;-0.003;
20190925_050510;0.311;9.536;-2.205;-0.001;-0.001;-0.005;
20190925_050510;0.309;9.436;-2.272;-0.003;-0.003;-0.006;
20190925_050510;0.283;9.440;-2.241;0.000;-0.001;-0.006;
20190925_050510;0.333;9.407;-2.284;-0.004;-0.004;-0.009;
20190925_050510;0.283;9.378;-2.272;-0.001;-0.003;-0.010;
20190925_050510;0.328;9.397;-2.241;-0.001;-0.001;-0.008;
20190925_050510;0.345;9.395;-2.246;-0.001;-0.004;-0.008;
20190925_050510;0.314;9.436;-2.272;0.000;-0.001;-0.007;
20190925_050510;0.280;9.380;-2.272;0.000;-0.001;-0.006;
20190925_050511;0.340;9.409;-2.231;-0.003;-0.002;-0.006;
20190925_050511;0.294;9.448;-2.263;0.000;-0.001;-0.004;
20190925_050511;0.333;9.388;-2.263;0.000;-0.000;-0.003;
20190925_050511;0.294;9.426;-2.265;-0.001;-0.001;0.000;
20190925_050511;0.297;9.421;-2.227;-0.001;-0.000;0.000;
20190925_050511;0.323;9.369;-2.363;-0.002;0.003;0.000;
20190925_050511;0.227;9.325;-2.301;0.001;-0.000;-0.001;
20190925_050511;0.254;9.321;-2.140;-0.004;-0.000;0.002;
20190925_050511;0.247;9.256;-2.207;0.000;0.002;0.002;
20190925_050511;0.232;9.270;-2.191;0.001;0.003;0.003;
20190925_050512;0.364;9.170;-2.148;-0.003;-0.000;0.001;
20190925_050512;0.247;9.155;-2.164;-0.003;-0.001;-0.001;
20190925_050512;0.318;9.155;-2.195;0.001;-0.000;0.002;
20190925_050512;0.297;9.158;-2.073;0.001;-0.000;0.000;
20190925_050512;0.292;9.182;-2.152;-0.003;-0.001;-0.003;
20190925_050512;0.333;9.155;-2.200;0.001;-0.001;-0.003;
20190925_050512;0.297;9.227;-2.212;0.002;-0.001;-0.003;
20190925_050512;0.290;9.251;-2.217;0.000;-0.001;-0.002;
20190925_050512;0.304;9.278;-2.198;0.000;-0.001;-0.002;
20190925_050513;0.254;9.246;-2.234;0.001;-0.001;-0.002;
20190925_050513;0.268;9.227;-2.224;0.001;-0.001;-0.002;
20190925_050513;0.285;9.299;-2.200;0.002;-0.000;-0.003;
20190925_050513;0.292;9.270;-2.195;0.000;-0.001;-0.003;
20190925_050513;0.278;9.210;-2.205;0.000;-0.001;-0.004;
20190925_050513;0.254;9.225;-2.203;0.001;-0.002;-0.005;
20190925_050513;0.249;9.191;-2.198;0.000;-0.001;-0.004;
20190925_050513;0.273;9.270;-2.205;0.000;-0.001;-0.005;
20190925_050513;0.292;9.232;-2.203;0.002;-0.001;-0.004;
20190925_050514;0.314;9.357;-2.231;0.002;-0.001;-0.004;
20190925_050514;0.287;9.333;-2.207;-0.003;-0.002;-0.005;
20190925_050514;0.266;9.266;-2.243;0.000;-0.001;-0.004;
20190925_050514;0.230;9.335;-2.207;-0.002;-0.001;-0.005;
20190925_050514;0.273;9.256;-2.222;-0.003;-0.001;-0.003;
20190925_050514;0.261;9.256;-2.231;0.001;-0.001;-0.003;
20190925_050514;0.302;9.170;-2.172;-0.001;-0.000;-0.003;
20190925_050514;0.263;9.179;-2.172;-0.001;-0.001;-0.003;
20190925_050514;0.244;9.234;-2.186;-0.001;-0.001;-0.002;
20190925_050514;0.292;9.227;-2.207;-0.002;-0.001;-0.003;
20190925_050515;0.280;9.234;-2.174;-0.001;-0.001;-0.002;
20190925_050515;0.278;9.239;-2.176;0.001;-0.003;-0.004;
20190925_050515;0.302;9.246;-2.188;0.000;-0.002;-0.003;
20190925_050515;0.275;9.249;-2.195;-0.001;-0.002;-0.004;
20190925_050515;0.271;9.225;-2.203;0.000;-0.002;-0.004;
20190925_050515;0.297;9.246;-2.152;-0.001;-0.002;-0.003;
20190925_050515;0.328;9.287;-2.229;0.001;-0.002;-0.002;
20190925_050515;0.330;9.369;-2.241;0.001;-0.002;-0.004;
20190925_050515;0.421;9.493;-2.243;0.000;-0.002;-0.004;
20190925_050516;0.314;9.419;-2.246;-0.001;-0.001;-0.004;
20190925_050516;0.345;9.618;-2.298;0.000;-0.001;-0.004;
20190925_050516;0.340;9.625;-2.291;0.001;-0.000;-0.002;
20190925_050516;0.402;9.792;-2.380;-0.001;-0.000;-0.003;
20190925_050516;0.357;9.613;-2.318;0.001;-0.001;-0.005;
20190925_050516;0.352;9.606;-2.320;-0.005;-0.000;-0.005;
20190925_050516;0.362;9.424;-2.310;-0.003;-0.001;-0.006;
20190925_050516;0.201;9.246;-2.246;-0.003;0.001;-0.004;
20190925_050516;0.232;9.371;-2.148;-0.001;-0.000;-0.002;
20190925_050517;0.251;9.246;-2.227;-0.003;-0.000;0.001;
20190925_050517;0.242;9.278;-2.198;-0.002;0.001;0.002;
20190925_050517;0.263;9.249;-2.195;0.001;-0.000;0.003;
20190925_050517;0.285;9.254;-2.184;-0.001;0.001;0.006;
20190925_050517;0.275;9.309;-2.255;0.000;-0.000;0.002;
20190925_050517;0.340;9.290;-2.217;0.002;-0.000;0.003;
20190925_050517;0.318;9.349;-2.217;0.001;-0.000;0.000;
20190925_050517;0.285;9.445;-2.334;0.001;-0.001;0.000;
20190925_050517;0.335;9.436;-2.277;-0.001;0.001;0.001;
20190925_050517;0.254;9.507;-2.270;0.002;-0.001;-0.002;
20190925_050518;0.280;9.488;-2.279;-0.001;-0.000;0.000;
20190925_050518;0.311;9.361;-2.258;-0.001;-0.001;-0.001;
20190925_050518;0.280;9.333;-2.229;-0.001;-0.001;-0.002;
20190925_050518;0.273;9.194;-2.186;-0.003;-0.001;-0.001;
20190925_050518;0.283;9.182;-2.181;0.000;-0.000;0.000;
20190925_050518;0.302;9.160;-2.157;-0.002;-0.001;-0.001;
20190925_050518;0.294;9.222;-2.203;0.000;-0.001;-0.002;
20190925_050518;0.261;9.316;-2.207;-0.002;-0.001;-0.002;
20190925_050518;0.273;9.349;-2.241;-0.001;-0.002;-0.002;
20190925_050519;0.263;9.433;-2.270;0.001;-0.002;-0.002;
20190925_050519;0.285;9.440;-2.258;-0.001;-0.000;0.000;
20190925_050519;0.280;9.471;-2.198;0.000;-0.002;-0.001;
20190925_050519;0.297;9.421;-2.282;0.001;-0.002;0.000;
20190925_050519;0.316;9.455;-2.263;0.001;-0.001;-0.001;
20190925_050519;0.342;9.488;-2.253;0.000;-0.001;-0.003;
20190925_050519;0.287;9.510;-2.241;0.001;-0.003;-0.005;
20190925_050519;0.292;9.438;-2.286;-0.001;-0.002;-0.007;
20190925_050519;0.285;9.474;-2.274;-0.002;-0.004;-0.006;
20190925_050520;0.323;9.397;-2.289;-0.003;-0.003;-0.007;
20190925_050520;0.342;9.404;-2.243;-0.001;-0.002;-0.006;
20190925_050520;0.333;9.361;-2.239;-0.001;-0.001;-0.004;
20190925_050520;0.364;9.369;-2.248;-0.001;-0.002;-0.005;
20190925_050520;0.330;9.290;-2.145;-0.003;-0.003;-0.005;
20190925_050520;0.297;9.316;-2.258;0.000;0.001;0.001;
20190925_050520;0.273;9.352;-2.212;-0.001;-0.000;0.000;
20190925_050520;0.268;9.337;-2.200;0.000;0.001;0.003;
20190925_050520;0.263;9.438;-2.291;0.000;-0.000;0.003;
20190925_050520;0.239;9.450;-2.260;0.000;0.001;0.004;
20190925_050521;0.278;9.424;-2.291;-0.002;0.001;0.002;
20190925_050521;0.280;9.457;-2.263;0.002;-0.000;0.003;
20190925_050521;0.278;9.443;-2.263;-0.001;-0.001;0.001;
20190925_050521;0.294;9.524;-2.320;0.000;-0.001;0.001;
20190925_050521;0.409;9.622;-2.339;0.001;-0.001;-0.002;
20190925_050521;0.340;9.625;-2.339;-0.004;-0.001;-0.003;
20190925_050521;0.359;9.536;-2.248;-0.001;-0.001;-0.006;
20190925_050521;0.383;9.536;-2.294;-0.002;-0.001;-0.006;
20190925_050521;0.347;9.443;-2.239;-0.003;-0.002;-0.005;
20190925_050522;0.338;9.440;-2.289;-0.002;-0.000;-0.006;
20190925_050522;0.311;9.400;-2.263;-0.003;-0.001;-0.006;
20190925_050522;0.354;9.287;-2.253;0.000;-0.001;-0.004;
20190925_050522;0.338;9.337;-2.222;-0.001;-0.000;-0.003;
20190925_050522;0.271;9.278;-2.207;-0.002;0.002;0.000;
20190925_050522;0.283;9.254;-2.200;-0.002;0.002;0.002;
20190925_050522;0.273;9.361;-2.198;0.001;0.003;0.003;
20190925_050522;0.223;9.287;-2.121;-0.001;0.003;0.004;
20190925_050522;0.244;9.278;-2.188;-0.002;0.001;0.006;
20190925_050523;0.232;9.301;-2.181;0.001;0.001;0.008;
20190925_050523;0.285;9.340;-2.260;0.000;0.002;0.007;
20190925_050523;0.278;9.378;-2.236;0.001;0.001;0.004;
20190925_050523;0.294;9.388;-2.229;0.001;0.002;0.004;
20190925_050523;0.271;9.407;-2.239;0.001;-0.000;0.002;
20190925_050523;0.285;9.440;-2.222;0.001;-0.000;0.001;
20190925_050523;0.364;9.452;-2.236;0.000;0.001;0.001;
20190925_050523;0.311;9.428;-2.176;-0.001;-0.001;-0.001;
20190925_050523;0.316;9.474;-2.251;-0.003;-0.001;-0.001;
20190925_050524;0.321;9.479;-2.308;-0.001;-0.000;-0.001;
20190925_050524;0.311;9.488;-2.263;-0.001;-0.000;-0.002;
20190925_050524;0.306;9.541;-2.279;-0.001;-0.000;-0.001;
20190925_050524;0.304;9.505;-2.263;-0.001;-0.001;-0.001;
20190925_050524;0.321;9.606;-2.272;-0.002;-0.000;-0.001;
20190925_050524;0.321;9.527;-2.231;-0.008;-0.000;0.000;
20190925_050524;0.306;9.536;-2.241;-0.001;-0.001;-0.001;
20190925_050524;0.373;9.498;-2.200;0.002;-0.001;-0.003;
20190925_050524;0.352;9.543;-2.186;-0.004;-0.001;-0.002;
20190925_050524;0.309;9.546;-2.246;-0.001;-0.000;-0.003;
20190925_050525;0.366;9.459;-2.253;-0.001;-0.002;-0.001;
20190925_050525;0.294;9.510;-2.215;-0.001;-0.001;-0.004;
20190925_050525;0.299;9.481;-2.224;0.001;-0.002;-0.002;
20190925_050525;0.254;9.483;-2.320;-0.002;-0.012;-0.002;
20190925_050525;0.699;9.440;-2.370;-0.007;-0.002;-0.004;
20190925_050525;0.421;9.457;-2.054;-0.005;0.002;-0.009;
20190925_050525;0.220;9.445;-2.385;-0.012;-0.000;-0.001;
20190925_050525;0.328;9.445;-2.337;-0.004;0.001;0.004;
20190925_050525;0.407;9.431;-2.162;-0.001;-0.000;-0.002;
20190925_050526;0.311;9.455;-2.258;0.000;0.001;-0.002;
20190925_050526;0.239;9.471;-2.315;0.001;-0.000;-0.002;
20190925_050526;0.168;9.404;-2.258;-0.007;0.003;0.003;
20190925_050526;0.294;9.419;-2.224;0.001;0.001;-0.001;
20190925_050526;0.275;9.491;-2.231;0.000;-0.000;-0.001;
20190925_050526;0.299;9.414;-2.200;0.001;-0.000;-0.001;
20190925_050526;0.247;9.512;-2.251;0.002;-0.001;-0.001;
20190925_050526;0.330;9.471;-2.239;0.002;0.001;0.001;
20190925_050526;0.362;9.541;-2.298;-0.003;0.001;0.000;
20190925_050527;0.271;9.517;-2.239;0.000;-0.001;0.000;
20190925_050527;0.254;9.474;-2.282;0.001;-0.000;-0.002;
20190925_050527;0.347;9.455;-2.246;-0.003;-0.000;0.000;
20190925_050527;0.338;9.457;-2.219;-0.003;-0.000;0.000;
20190925_050527;0.321;9.407;-2.291;-0.001;-0.000;-0.002;
20190925_050527;0.309;9.424;-2.279;-0.001;-0.000;-0.001;
20190925_050527;0.388;9.404;-2.138;-0.007;0.002;0.002;
20190925_050527;0.330;9.388;-2.239;-0.002;-0.001;-0.004;
20190925_050527;0.326;9.390;-2.263;0.000;-0.000;-0.003;
20190925_050527;0.304;9.337;-2.195;0.002;-0.001;-0.004;
20190925_050528;0.297;9.385;-2.205;0.001;-0.000;-0.002;
20190925_050528;0.285;9.402;-2.217;0.000;-0.001;-0.002;
20190925_050528;0.239;9.345;-2.263;-0.002;-0.000;-0.002;
20190925_050528;0.299;9.400;-2.243;0.001;0.001;-0.002;
20190925_050528;0.271;9.452;-2.217;0.001;-0.001;-0.001;
20190925_050528;0.263;9.457;-2.260;0.001;-0.002;-0.002;
20190925_050528;0.268;9.464;-2.222;-0.001;-0.001;-0.001;
20190925_050528;0.302;9.493;-2.272;-0.001;-0.000;0.000;
20190925_050528;0.294;9.457;-2.227;0.001;-0.001;-0.001;
20190925_050529;0.330;9.483;-2.236;-0.002;-0.000;-0.001;
20190925_050529;0.299;9.474;-2.224;-0.002;-0.001;-0.001;
20190925_050529;0.294;9.474;-2.274;0.002;0.001;0.000;
20190925_050529;0.273;9.450;-2.294;-0.002;-0.001;-0.001;
20190925_050529;0.321;9.416;-2.231;-0.003;-0.000;-0.002;
20190925_050529;0.239;9.433;-2.236;0.002;-0.000;-0.002;
20190925_050529;0.280;9.414;-2.179;-0.001;-0.001;-0.001;
20190925_050529;0.304;9.378;-2.164;-0.001;-0.001;-0.001;
20190925_050529;0.283;9.340;-2.160;0.001;-0.000;-0.001;
20190925_050530;0.280;9.349;-2.222;-0.003;-0.000;-0.001;
20190925_050530;0.299;9.388;-2.188;0.001;-0.000;0.000;
20190925_050530;0.275;9.321;-2.174;0.001;0.001;0.000;
20190925_050530;0.350;9.349;-2.195;0.000;-0.001;-0.001;
20190925_050530;0.285;9.330;-2.215;0.000;-0.002;-0.004;
20190925_050530;0.306;9.335;-2.186;0.003;-0.001;-0.002;
20190925_050530;0.318;9.412;-2.260;-0.001;-0.002;-0.004;
20190925_050530;0.333;9.431;-2.260;-0.001;-0.000;-0.003;
20190925_050530;0.330;9.474;-2.298;0.002;-0.002;-0.005;
20190925_050531;0.330;9.443;-2.248;-0.001;-0.001;-0.004;
20190925_050531;0.309;9.426;-2.258;-0.003;-0.001;-0.004;
20190925_050531;0.304;9.457;-2.298;0.001;-0.002;-0.004;
20190925_050531;0.283;9.488;-2.274;0.001;-0.001;-0.003;
20190925_050531;0.302;9.431;-2.215;0.002;-0.002;-0.002;
20190925_050531;0.306;9.412;-2.246;-0.000;-0.001;-0.001;
20190925_050531;0.287;9.304;-2.219;0.001;-0.002;0.000;
20190925_050531;0.304;9.380;-2.174;-0.001;-0.002;-0.002;
20190925_050531;0.285;9.359;-2.267;-0.000;0.000;0.000;
20190925_050531;0.302;9.378;-2.179;0.002;0.001;-0.001;
20190925_050532;0.271;9.345;-2.219;0.001;-0.001;-0.001;
20190925_050532;0.271;9.416;-2.207;0.001;0.000;0.000;
20190925_050532;0.271;9.373;-2.207;0.001;0.000;0.000;
20190925_050532;0.318;9.380;-2.200;0.001;0.000;0.000;
20190925_050532;0.273;9.443;-2.248;-0.000;-0.001;0.000;
20190925_050532;0.294;9.462;-2.207;-0.000;-0.001;-0.001;
20190925_050532;0.271;9.421;-2.246;0.001;-0.001;0.001;
20190925_050532;0.314;9.512;-2.215;0.001;-0.001;-0.001;
20190925_050532;0.292;9.433;-2.212;-0.000;-0.001;0.000;
20190925_050532;0.340;9.493;-2.251;0.002;0.000;0.000;
20190925_050533;0.283;9.433;-2.253;0.002;-0.001;0.000;
20190925_050533;0.304;9.440;-2.184;-0.001;-0.001;-0.001;
20190925_050533;0.292;9.452;-2.231;-0.001;-0.001;-0.001;
20190925_050533;0.283;9.481;-2.229;0.002;-0.003;-0.002;
20190925_050533;0.287;9.445;-2.219;-0.000;0.000;0.000;
20190925_050533;0.280;9.512;-2.246;0.002;-0.001;-0.001;
20190925_050533;0.306;9.457;-2.253;-0.000;-0.001;-0.001;
20190925_050533;0.280;9.479;-2.282;0.002;-0.001;-0.002;
20190925_050533;0.263;9.519;-2.279;0.001;-0.002;-0.001;
20190925_050534;0.417;9.436;-2.272;0.004;-0.001;0.000;
20190925_050534;0.338;9.507;-2.248;0.002;-0.003;-0.003;
20190925_050534;0.292;9.510;-2.241;-0.001;-0.002;-0.004;
20190925_050534;0.333;9.450;-2.193;0.001;0.001;-0.001;
20190925_050534;0.328;9.510;-2.236;0.001;-0.003;-0.003;
20190925_050534;0.292;9.462;-2.193;-0.000;-0.002;-0.004;
20190925_050534;0.321;9.428;-2.234;0.001;-0.001;-0.003;
20190925_050534;0.342;9.433;-2.241;-0.000;-0.001;-0.001;
20190925_050534;0.338;9.424;-2.203;-0.000;-0.001;-0.003;
20190925_050535;0.326;9.428;-2.243;0.001;-0.001;-0.003;
20190925_050535;0.342;9.390;-2.212;-0.000;-0.001;-0.002;
20190925_050535;0.342;9.438;-2.248;0.001;0.000;-0.003;
20190925_050535;0.350;9.438;-2.224;-0.001;0.000;-0.002;
20190925_050535;0.359;9.395;-2.279;-0.001;-0.000;-0.001;
20190925_050535;0.321;9.378;-2.217;-0.001;-0.000;-0.001;
20190925_050535;0.323;9.390;-2.282;0.002;0.002;0.000;
20190925_050535;0.318;9.431;-2.229;-0.001;0.002;0.000;
20190925_050535;0.345;9.421;-2.210;-0.001;0.001;0.001;
20190925_050536;0.283;9.426;-2.274;0.001;0.001;0.000;
20190925_050536;0.314;9.416;-2.217;-0.001;0.001;0.000;
20190925_050536;0.338;9.457;-2.215;0.002;0.002;0.001;
20190925_050536;0.309;9.397;-2.243;0.000;0.002;0.002;
20190925_050536;0.278;9.426;-2.236;0.001;0.002;0.002;
20190925_050536;0.321;9.464;-2.253;0.002;0.003;0.003;
20190925_050536;0.306;9.467;-2.270;0.001;0.002;0.005;
20190925_050536;0.318;9.503;-2.263;0.001;0.002;0.005;
20190925_050536;0.306;9.493;-2.203;0.000;0.003;0.005;
20190925_050536;0.297;9.486;-2.215;0.001;0.002;0.005;
20190925_050537;0.304;9.488;-2.258;0.000;0.001;0.002;
20190925_050537;0.326;9.488;-2.217;0.001;0.003;0.003;
20190925_050537;0.309;9.493;-2.236;0.002;0.003;0.002;
20190925_050537;0.311;9.522;-2.246;0.000;0.001;0.002;
20190925_050537;0.306;9.455;-2.251;-0.001;0.001;0.001;
20190925_050537;0.287;9.534;-2.289;0.001;0.001;0.001;
20190925_050537;0.299;9.553;-2.243;0.000;0.001;0.002;
20190925_050537;0.302;9.519;-2.239;-0.001;0.001;0.001;
20190925_050537;0.283;9.550;-2.229;-0.002;0.001;0.000;
20190925_050538;0.290;9.479;-2.253;0.000;0.001;0.000;
20190925_050538;0.306;9.498;-2.195;-0.001;-0.000;0.002;
20190925_050538;0.287;9.416;-2.267;0.001;0.001;0.000;
20190925_050538;0.283;9.481;-2.210;-0.002;0.002;0.001;
20190925_050538;0.306;9.457;-2.241;0.000;0.002;0.001;
20190925_050538;0.287;9.491;-2.231;-0.003;0.001;0.001;
20190925_050538;0.316;9.474;-2.253;-0.001;-0.000;0.002;
20190925_050538;0.283;9.524;-2.277;0.000;0.001;0.002;
20190925_050538;0.287;9.500;-2.239;-0.001;0.001;0.002;
20190925_050538;0.306;9.462;-2.241;-0.001;0.001;0.000;
20190925_050539;0.275;9.495;-2.219;-0.001;0.001;0.001;
20190925_050539;0.273;9.404;-2.203;-0.001;-0.000;0.001;
20190925_050539;0.311;9.503;-2.260;-0.002;-0.000;0.002;
20190925_050539;0.333;9.481;-2.274;-0.002;-0.001;0.000;
20190925_050539;0.383;9.450;-2.100;0.009;-0.001;0.000;
20190925_050539;0.206;9.500;-2.284;0.001;-0.000;0.001;
20190925_050539;0.218;9.445;-2.248;0.003;-0.002;-0.002;
20190925_050539;0.225;9.424;-2.315;-0.003;-0.000;0.005;
20190925_050539;0.199;9.390;-2.184;-0.003;-0.000;0.003;
20190925_050540;0.218;9.407;-2.195;0.001;-0.000;0.005;
20190925_050540;0.254;9.380;-2.203;-0.001;0.001;0.003;
20190925_050540;0.251;9.416;-2.217;-0.001;-0.000;0.003;
20190925_050540;0.285;9.438;-2.260;-0.001;-0.000;0.005;
20190925_050540;0.323;9.383;-2.179;-0.001;-0.000;0.002;
20190925_050540;0.306;9.440;-2.239;-0.000;-0.002;-0.001;
20190925_050540;0.321;9.345;-2.234;0.001;-0.003;-0.003;
20190925_050540;0.321;9.345;-2.224;0.001;-0.003;-0.003;
20190925_050540;0.285;9.376;-2.186;0.002;-0.002;-0.005;
20190925_050541;0.302;9.428;-2.243;-0.000;-0.002;-0.004;
20190925_050541;0.321;9.364;-2.193;-0.000;-0.001;-0.005;
20190925_050541;0.306;9.400;-2.174;-0.000;-0.002;-0.004;
20190925_050541;0.306;9.419;-2.210;-0.000;-0.003;-0.005;
20190925_050541;0.328;9.433;-2.176;0.001;-0.003;-0.008;
20190925_050541;0.311;9.445;-2.248;0.002;-0.003;-0.007;
20190925_050541;0.309;9.464;-2.272;0.001;-0.003;-0.005;
20190925_050541;0.292;9.395;-2.253;0.001;-0.003;-0.004;
20190925_050541;0.362;9.474;-2.236;0.002;-0.003;-0.004;
20190925_050541;0.323;9.419;-2.241;0.001;-0.002;-0.004;
20190925_050542;0.316;9.416;-2.260;0.001;-0.002;-0.004;
20190925_050542;0.328;9.445;-2.227;0.003;-0.001;-0.003;
20190925_050542;0.352;9.378;-2.188;0.002;-0.001;-0.002;
20190925_050542;0.311;9.459;-2.186;-0.001;0.001;-0.001;
20190925_050542;0.340;9.409;-2.219;0.001;0.001;-0.001;
20190925_050542;0.318;9.445;-2.227;0.001;-0.001;-0.001;
20190925_050542;0.302;9.483;-2.222;0.001;-0.001;-0.002;
20190925_050542;0.304;9.459;-2.229;0.002;-0.001;-0.002;
20190925_050542;0.338;9.483;-2.227;0.003;-0.002;-0.001;
20190925_050543;0.321;9.483;-2.272;0.002;-0.002;-0.002;
20190925_050543;0.278;9.550;-2.265;0.002;-0.001;-0.002;
20190925_050543;0.304;9.541;-2.227;0.001;-0.002;-0.002;
20190925_050543;0.285;9.488;-2.286;0.002;0.000;-0.002;
20190925_050543;0.304;9.548;-2.255;0.003;-0.001;-0.001;
20190925_050543;0.294;9.574;-2.248;-0.000;-0.001;-0.002;
20190925_050543;0.323;9.531;-2.282;0.003;-0.001;-0.002;
20190925_050543;0.306;9.550;-2.234;0.001;0.000;-0.001;
20190925_050543;0.318;9.555;-2.267;0.003;0.001;-0.001;
20190925_050543;0.302;9.519;-2.255;0.001;-0.001;-0.001;
20190925_050544;0.323;9.505;-2.265;0.004;-0.001;-0.002;
20190925_050544;0.318;9.538;-2.231;-0.000;-0.001;0.001;
20190925_050544;0.299;9.474;-2.258;0.002;0.000;-0.001;
20190925_050544;0.314;9.527;-2.241;0.002;-0.001;0.001;
20190925_050544;0.278;9.515;-2.246;0.002;0.000;-0.001;
20190925_050544;0.304;9.467;-2.251;0.004;-0.001;-0.001;
20190925_050544;0.299;9.510;-2.270;0.005;-0.001;-0.001;
20190925_050544;0.266;9.572;-2.246;0.003;0.000;0.002;
20190925_050544;0.316;9.591;-2.265;0.004;-0.001;-0.001;
20190925_050545;0.280;9.675;-2.310;0.005;-0.001;-0.002;
20190925_050545;0.299;9.675;-2.294;0.008;0.001;-0.001;
20190925_050545;0.297;9.732;-2.274;0.007;-0.001;-0.001;
20190925_050545;0.237;9.835;-2.392;0.006;0.000;-0.001;
20190925_050545;0.275;9.828;-2.227;0.009;-0.001;-0.001;
20190925_050545;0.309;9.924;-2.344;0.010;0.000;-0.001;
20190925_050545;0.314;9.974;-2.370;0.007;-0.001;-0.001;
20190925_050545;0.330;9.910;-2.337;0.008;0.000;0.002;
20190925_050545;0.297;10.008;-2.380;0.006;0.000;-0.001;
20190925_050546;0.266;10.087;-2.361;0.007;-0.001;0.001;
20190925_050546;0.254;10.034;-2.409;0.010;-0.001;-0.001;
20190925_050546;0.242;10.048;-2.373;0.008;-0.002;-0.001;
20190925_050546;0.330;10.015;-2.404;0.008;-0.002;0.001;
20190925_050546;0.383;10.092;-2.454;0.006;-0.002;-0.001;
20190925_050546;0.297;10.142;-2.411;0.010;-0.002;-0.002;
20190925_050546;0.299;10.197;-2.464;0.009;-0.002;-0.002;
20190925_050546;0.357;10.209;-2.452;0.005;-0.002;-0.002;
20190925_050546;0.340;10.118;-2.423;0.008;-0.002;-0.004;
20190925_050547;0.354;10.118;-2.437;0.007;-0.002;-0.003;
20190925_050547;0.321;10.240;-2.411;0.007;-0.002;-0.004;
20190925_050547;0.278;10.202;-2.512;0.009;-0.003;-0.005;
20190925_050547;0.352;10.288;-2.490;0.009;-0.002;-0.005;
20190925_050547;0.261;10.257;-2.468;0.009;-0.002;-0.006;
20190925_050547;0.263;10.238;-2.437;0.012;-0.001;-0.003;
20190925_050547;0.306;10.252;-2.495;0.009;-0.002;-0.003;
20190925_050547;0.273;10.266;-2.425;0.008;-0.003;-0.003;
20190925_050547;0.304;10.240;-2.519;0.010;-0.002;-0.001;
20190925_050547;0.333;10.271;-2.507;0.009;-0.001;0.002;
20190925_050548;0.299;10.305;-2.528;0.007;-0.001;0.002;
20190925_050548;0.364;10.281;-2.509;0.009;0.000;0.001;
20190925_050548;0.524;10.372;-2.356;0.017;-0.003;-0.003;
20190925_050548;0.546;10.331;-2.377;0.008;0.005;-0.003;
20190925_050548;0.304;10.353;-2.485;0.001;0.002;0.005;
20190925_050548;0.400;10.333;-2.488;0.006;0.001;0.003;
20190925_050548;0.342;10.398;-2.567;0.009;0.000;-0.004;
20190925_050548;0.373;10.379;-2.545;0.008;0.000;-0.003;
20190925_050548;0.318;10.420;-2.507;0.007;0.001;-0.001;
20190925_050549;0.362;10.432;-2.550;0.009;-0.001;-0.001;
20190925_050549;0.306;10.408;-2.555;0.007;0.000;-0.001;
20190925_050549;0.328;10.444;-2.670;0.012;0.001;0.001;
20190925_050549;0.318;10.463;-2.713;0.007;0.000;-0.001;
20190925_050549;0.297;10.405;-2.579;0.007;0.001;-0.003;
20190925_050549;0.302;10.396;-2.670;0.009;0.001;-0.002;
20190925_050549;0.350;10.374;-2.610;-0.001;0.001;0.002;
20190925_050549;0.309;10.415;-2.588;-0.001;0.001;0.002;
20190925_050549;0.247;10.381;-2.624;-0.004;0.003;0.002;
20190925_050550;0.266;10.357;-2.660;0.001;0.002;0.001;
20190925_050550;0.304;10.369;-2.696;0.003;0.003;0.002;
20190925_050550;0.306;10.408;-2.682;-0.000;0.002;0.003;
20190925_050550;0.342;10.408;-2.710;-0.001;0.003;0.003;
20190925_050550;0.309;10.365;-2.717;-0.001;0.002;0.003;
20190925_050550;0.311;10.403;-2.739;-0.003;0.002;0.003;
20190925_050550;0.314;10.453;-2.751;-0.000;0.001;0.000;
20190925_050550;0.314;10.393;-2.794;-0.001;0.001;0.000;
20190925_050550;0.350;10.400;-2.796;-0.001;0.001;-0.001;
20190925_050550;0.294;10.420;-2.811;-0.001;0.002;0.000;
20190925_050551;0.304;10.362;-2.799;-0.004;0.001;0.001;
20190925_050551;0.340;10.381;-2.861;-0.004;0.001;-0.001;
20190925_050551;0.294;10.355;-2.883;-0.001;0.001;0.000;
20190925_050551;0.311;10.300;-2.792;-0.005;0.001;0.000;
20190925_050551;0.306;10.230;-2.806;-0.005;0.001;0.000;
20190925_050551;0.287;10.195;-2.840;-0.005;0.001;-0.001;
20190925_050551;0.297;10.139;-2.844;-0.007;0.001;0.001;
20190925_050551;0.299;10.113;-2.813;-0.008;0.002;0.001;
20190925_050551;0.278;10.041;-2.818;-0.006;0.002;0.001;
20190925_050552;0.271;10.020;-2.823;-0.007;0.001;0.002;
20190925_050552;0.285;9.938;-2.820;-0.007;0.001;0.001;
20190925_050552;0.273;9.926;-2.866;-0.005;0.001;0.001;
20190925_050552;0.285;9.886;-2.852;-0.008;0.001;0.000;
20190925_050552;0.321;9.895;-2.909;-0.006;0.002;0.002;
20190925_050552;0.311;9.833;-2.856;-0.011;0.001;0.001;
20190925_050552;0.285;9.859;-2.890;-0.010;-0.001;0.000;
20190925_050552;0.268;9.787;-2.859;-0.011;0.000;0.001;
20190925_050552;0.385;9.819;-3.019;-0.009;0.001;0.011;
20190925_050552;0.314;9.764;-2.768;-0.008;-0.001;0.001;
20190925_050553;0.294;9.773;-2.835;-0.034;0.000;0.007;
20190925_050553;0.328;9.747;-2.741;-0.015;-0.001;0.003;
20190925_050553;0.323;9.704;-2.859;-0.010;0.000;0.000;
20190925_050553;0.292;9.634;-2.804;-0.010;-0.001;-0.002;
20190925_050553;0.323;9.562;-2.830;-0.008;0.000;0.000;
20190925_050553;0.297;9.500;-2.806;-0.009;0.000;-0.002;
20190925_050553;0.306;9.498;-2.830;-0.011;-0.001;-0.001;
20190925_050553;0.314;9.507;-2.830;-0.009;-0.001;-0.003;
20190925_050553;0.304;9.491;-2.840;-0.011;-0.002;-0.001;
20190925_050554;0.299;9.419;-2.828;-0.010;0.000;-0.002;
20190925_050554;0.314;9.445;-2.852;-0.011;-0.001;-0.001;
20190925_050554;0.306;9.419;-2.820;-0.011;0.000;-0.001;
20190925_050554;0.330;9.349;-2.816;-0.010;0.000;-0.001;
20190925_050554;0.302;9.333;-2.832;-0.010;0.000;-0.001;
20190925_050554;0.287;9.292;-2.811;-0.010;0.000;0.000;
20190925_050554;0.306;9.297;-2.794;-0.011;0.000;0.000;
20190925_050554;0.302;9.316;-2.835;-0.010;0.001;-0.001;
20190925_050554;0.280;9.251;-2.854;-0.011;0.000;-0.001;
20190925_050555;0.290;9.244;-2.830;-0.010;0.000;-0.001;
20190925_050555;0.287;9.239;-2.796;-0.011;-0.001;0.000;
20190925_050555;0.271;9.208;-2.830;-0.011;0.001;0.000;
20190925_050555;0.290;9.155;-2.801;-0.010;0.000;-0.001;
20190925_050555;0.285;9.127;-2.780;-0.012;0.001;0.001;
20190925_050555;0.285;9.108;-2.818;-0.010;0.001;0.000;
20190925_050555;0.278;9.019;-2.749;-0.011;0.000;0.001;
20190925_050555;0.256;9.069;-2.808;-0.009;0.000;0.000;
20190925_050555;0.283;9.170;-2.780;-0.009;0.000;0.001;
20190925_050556;0.280;9.134;-2.801;-0.009;0.000;0.001;
20190925_050556;0.306;9.131;-2.823;-0.008;0.000;0.000;
20190925_050556;0.333;9.115;-2.818;-0.010;-0.002;-0.001;
20190925_050556;0.323;9.110;-2.782;-0.008;0.000;0.000;
20190925_050556;0.345;9.088;-2.808;-0.009;-0.001;-0.001;
20190925_050556;0.350;9.091;-2.796;-0.010;0.000;-0.001;
20190925_050556;0.314;9.093;-2.816;-0.009;-0.001;-0.001;
20190925_050556;0.306;9.124;-2.837;-0.009;0.000;-0.002;
20190925_050556;0.335;9.124;-2.823;-0.010;0.000;-0.003;
20190925_050556;0.347;9.151;-2.787;-0.011;0.001;0.000;
20190925_050557;0.352;9.148;-2.844;-0.010;0.000;0.000;
20190925_050557;0.306;9.179;-2.823;-0.008;0.000;0.000;
20190925_050557;0.342;9.201;-2.823;-0.009;0.001;0.000;
20190925_050557;0.304;9.210;-2.832;-0.008;0.001;-0.001;
20190925_050557;0.328;9.206;-2.847;-0.011;0.000;0.000;
20190925_050557;0.292;9.230;-2.801;-0.010;0.001;0.000;
20190925_050557;0.318;9.163;-2.804;-0.012;0.000;-0.001;
20190925_050557;0.316;9.158;-2.799;-0.010;0.001;-0.001;
20190925_050557;0.285;9.158;-2.804;-0.009;0.000;-0.001;
20190925_050558;0.182;9.124;-2.746;-0.010;0.000;0.002;
20190925_050558;0.318;9.158;-2.796;-0.010;0.002;0.005;
20190925_050558;0.326;9.177;-2.813;-0.004;0.004;0.004;
20190925_050558;0.227;9.163;-2.789;-0.006;0.006;0.002;
20190925_050558;0.275;9.146;-2.830;-0.004;0.004;0.001;
20190925_050558;0.251;9.120;-2.813;-0.012;-0.001;0.002;
20190925_050558;0.292;9.081;-2.732;-0.014;0.000;0.005;
20190925_050558;0.290;9.108;-2.784;-0.004;0.000;0.003;
20190925_050558;0.227;9.041;-2.761;-0.000;-0.001;0.004;
20190925_050558;0.230;9.108;-2.751;0.002;0.000;0.003;
20190925_050559;0.259;9.069;-2.763;-0.000;0.000;0.000;
20190925_050559;0.259;9.112;-2.756;-0.002;-0.001;0.001;
20190925_050559;0.275;9.091;-2.763;-0.000;-0.002;-0.001;
20190925_050559;0.273;9.110;-2.741;-0.003;-0.002;0.000;
20190925_050559;0.328;9.129;-2.749;-0.002;-0.002;0.000;
20190925_050559;0.273;9.108;-2.732;-0.003;-0.001;-0.002;
20190925_050559;0.299;9.129;-2.804;-0.000;0.000;-0.002;
20190925_050559;0.333;9.134;-2.744;0.001;-0.001;-0.002;
20190925_050559;0.357;9.069;-2.765;0.001;0.000;-0.001;
20190925_050600;0.340;9.091;-2.734;0.001;-0.001;-0.002;
20190925_050600;0.381;9.088;-2.741;-0.000;0.000;-0.002;
20190925_050600;0.287;9.079;-2.753;0.002;-0.001;-0.002;
20190925_050600;0.302;9.096;-2.698;0.001;-0.001;-0.001;
20190925_050600;0.304;9.048;-2.734;0.001;-0.001;-0.001;
20190925_050600;0.285;9.112;-2.737;-0.000;0.000;-0.001;
20190925_050600;0.273;9.124;-2.744;0.002;-0.001;-0.001;
20190925_050600;0.283;9.117;-2.715;-0.000;-0.001;0.000;
20190925_050600;0.330;9.165;-2.739;-0.000;-0.001;0.000;
20190925_050600;0.371;9.112;-2.717;-0.002;0.002;0.000;
20190925_050601;0.388;9.031;-2.658;-0.002;0.002;-0.002;
20190925_050601;0.314;9.043;-2.693;-0.003;0.001;-0.002;
20190925_050601;0.321;8.973;-2.775;-0.002;0.000;-0.002;
20190925_050601;0.345;8.935;-2.717;-0.000;0.001;0.000;
20190925_050601;0.306;9.000;-2.713;0.001;0.002;-0.001;
20190925_050601;0.297;8.993;-2.720;0.001;0.001;0.000;
20190925_050601;0.285;9.041;-2.698;0.001;0.003;0.001;
20190925_050601;0.347;9.134;-2.763;0.004;0.001;0.001;
20190925_050601;0.292;9.167;-2.763;0.004;0.002;0.001;
20190925_050602;0.268;9.210;-2.717;0.003;0.002;0.001;
20190925_050602;0.268;9.225;-2.765;0.001;0.002;0.003;
