Timestamp;Accel_x;Accel_y;Accel_z;Gyro_x;Gyro_y;Gyro_z;
20190926_022152;0.043;6.754;6.129;0.316;-0.086;-0.071;
20190926_022152;0.553;6.706;5.887;0.506;-0.515;0.015;
20190926_022152;0.649;6.960;6.443;-0.280;-0.600;-0.049;
20190926_022152;0.481;6.855;6.632;-0.195;-0.338;0.146;
20190926_022153;0.354;7.851;5.899;0.743;-0.946;0.085;
20190926_022153;1.386;7.590;4.216;1.521;-0.450;0.836;
20190926_022153;3.785;8.255;3.199;2.022;0.192;1.799;
20190926_022153;4.243;8.210;2.035;1.480;0.247;0.855;
20190926_022153;5.538;6.242;2.040;0.488;0.020;0.874;
20190926_022153;3.785;8.054;1.018;0.104;0.120;-0.625;
20190926_022153;5.224;8.090;2.500;-0.746;-0.190;0.105;
20190926_022153;2.959;7.693;2.689;-2.030;0.584;-0.703;
20190926_022153;3.780;7.424;3.979;-1.066;0.641;-0.255;
20190926_022153;3.302;7.724;5.076;-0.201;0.169;-0.491;
20190926_022154;1.125;7.537;5.042;-0.141;0.234;-0.710;
20190926_022154;0.388;7.645;6.278;-0.450;0.324;-0.341;
20190926_022154;0.591;7.570;5.672;0.015;0.094;-0.465;
20190926_022154;-0.048;7.039;4.288;-0.529;0.176;-0.083;
20190926_022154;-0.211;6.809;6.546;-0.132;0.123;-0.098;
20190926_022154;-0.168;6.230;6.455;-0.302;0.221;-0.108;
20190926_022154;-0.184;6.491;6.716;-0.047;0.203;0.024;
20190926_022154;-0.443;6.155;6.347;0.066;0.220;-0.136;
20190926_022154;-0.718;6.476;6.414;0.201;0.119;-0.015;
20190926_022155;-0.986;6.416;6.091;0.023;-0.107;0.109;
20190926_022155;-0.347;6.773;6.665;-0.074;-0.003;-0.011;
20190926_022155;-0.249;6.227;6.950;0.132;-0.283;0.557;
20190926_022155;-0.093;6.309;7.403;-0.560;0.322;-0.143;
20190926_022155;-0.041;6.455;6.953;-0.171;0.048;-0.023;
20190926_022155;-0.850;6.285;6.436;0.084;-0.054;-0.120;
20190926_022155;-0.970;6.426;6.357;0.115;0.029;-0.070;
20190926_022155;-0.898;6.390;6.493;0.108;0.246;-0.201;
20190926_022155;-2.212;6.598;6.256;-0.011;0.736;-0.699;
20190926_022155;-2.315;6.570;6.062;0.333;0.217;-0.196;
20190926_022156;-2.078;6.419;5.581;0.144;0.054;0.070;
20190926_022156;-2.090;6.766;5.933;0.066;0.063;-0.109;
20190926_022156;-2.638;6.675;5.950;0.007;0.094;-0.061;
20190926_022156;-1.652;6.527;5.710;0.156;0.144;-0.112;
20190926_022156;-2.734;7.065;5.957;-0.179;-0.347;0.408;
20190926_022156;-2.298;6.677;5.655;-0.022;-0.036;0.349;
20190926_022156;-0.850;6.201;5.993;-0.346;-0.045;0.256;
20190926_022156;-1.279;6.718;6.644;-0.228;-0.273;0.235;
20190926_022156;-0.553;6.191;6.309;-0.190;-0.163;0.334;
20190926_022156;-0.570;5.358;6.883;-0.114;0.279;-0.565;
20190926_022157;-0.991;6.227;7.949;-0.563;-0.189;0.168;
20190926_022157;-0.309;5.583;7.343;-0.086;-0.001;-0.016;
20190926_022157;0.067;5.878;6.852;0.355;-0.223;0.233;
20190926_022157;-0.115;5.947;6.871;0.055;-0.071;0.027;
20190926_022157;-0.230;6.187;7.032;0.038;-0.074;0.012;
20190926_022157;-0.069;6.072;6.692;0.208;-0.272;-0.022;
20190926_022157;-0.045;6.809;5.847;1.101;-1.180;0.276;
20190926_022157;2.100;6.960;7.099;1.069;-0.740;0.945;
20190926_022157;3.505;8.545;2.662;2.909;-0.092;1.495;
20190926_022158;2.828;9.606;1.942;2.141;0.309;2.015;
20190926_022158;6.567;7.061;0.194;1.274;0.180;0.392;
20190926_022158;5.559;7.736;0.168;0.064;-0.124;-0.059;
20190926_022158;5.160;8.109;-1.446;1.832;-0.787;0.024;
20190926_022158;5.078;7.192;-2.128;0.619;0.340;0.513;
20190926_022158;4.700;7.676;-1.176;-1.685;0.639;-0.992;
20190926_022158;4.568;8.104;0.520;-1.435;-0.119;-0.738;
20190926_022158;3.043;7.721;1.642;-1.557;0.597;-1.121;
20190926_022158;2.023;8.734;3.108;-1.390;0.045;-1.204;
20190926_022158;0.800;9.673;5.358;-0.894;-0.032;-0.197;
20190926_022159;1.106;7.779;4.278;-0.382;0.223;-0.467;
20190926_022159;0.251;8.243;5.437;0.044;-0.202;0.186;
20190926_022159;-1.211;8.490;5.904;-0.109;-0.071;0.162;
20190926_022159;2.100;9.716;4.786;2.371;-0.579;1.524;
20190926_022159;5.904;7.233;-0.029;3.036;-0.047;2.367;
20190926_022159;7.379;6.857;0.206;1.208;0.174;1.612;
20190926_022159;5.906;8.056;-2.049;1.481;-0.401;0.256;
20190926_022159;6.278;6.864;-2.990;1.226;-0.147;0.163;
20190926_022159;5.059;5.507;-2.356;0.170;-0.278;0.247;
20190926_022200;6.316;7.954;-3.701;-0.058;0.089;0.596;
20190926_022200;6.227;7.046;-2.200;0.059;0.015;0.379;
20190926_022200;5.916;7.068;-3.876;0.760;-0.475;-0.076;
20190926_022200;7.688;5.183;-6.206;0.455;0.095;0.003;
20190926_022200;5.332;7.712;-3.180;-0.169;-0.671;-0.766;
20190926_022200;4.451;8.092;-6.088;1.358;0.151;0.363;
20190926_022200;8.384;2.274;-5.612;0.766;0.555;0.119;
20190926_022200;5.705;3.685;-4.757;-0.573;-0.886;-0.674;
20190926_022200;4.235;6.826;-6.869;-0.026;-0.410;-0.833;
20190926_022200;3.474;5.545;-5.746;-0.264;-2.129;-0.691;
20190926_022201;1.733;9.641;-9.122;-1.851;-0.064;-0.527;
20190926_022201;0.113;9.479;-2.746;-2.625;-0.218;-0.005;
20190926_022201;1.877;7.451;-2.796;-1.117;0.533;0.204;
20190926_022201;1.956;9.878;-3.776;-0.092;-0.162;-0.217;
20190926_022201;-0.002;11.791;-3.402;-0.144;-0.447;-0.513;
20190926_022201;1.607;9.622;-3.654;-0.092;0.451;-0.265;
20190926_022201;1.032;9.278;-2.648;-0.061;0.114;-0.009;
20190926_022201;1.496;8.837;-4.013;-0.068;0.109;-0.076;
20190926_022201;0.747;9.225;-2.954;-0.015;0.090;-0.005;
20190926_022202;1.731;9.519;-3.905;0.108;-0.059;0.110;
20190926_022202;0.788;9.493;-1.911;-0.227;-0.083;-0.078;
20190926_022202;1.051;9.433;-2.454;-0.008;-0.053;-0.059;
20190926_022202;0.792;9.136;-2.354;-0.018;-0.024;-0.253;
20190926_022202;0.347;9.742;-3.247;-0.167;0.004;-0.310;
20190926_022202;0.737;9.697;-2.480;-0.047;-0.014;0.032;
20190926_022202;0.079;9.701;-2.270;-0.012;0.010;-0.002;
20190926_022202;0.014;9.613;-3.369;0.479;0.006;0.815;
20190926_022202;0.493;9.445;-2.789;0.096;-0.002;0.202;
20190926_022202;3.824;9.421;-3.160;-0.001;0.025;0.509;
20190926_022203;1.693;9.476;-0.464;-0.265;-0.004;-0.057;
20190926_022203;3.081;8.588;-2.571;0.131;-0.234;-0.445;
20190926_022203;0.970;9.345;-2.363;-0.113;0.038;-0.023;
20190926_022203;1.267;8.760;-2.045;-0.095;0.109;-0.128;
20190926_022203;-0.692;14.147;-2.998;0.059;0.021;-0.111;
20190926_022203;0.678;9.639;-2.375;-0.042;-0.027;0.006;
20190926_022203;1.326;3.510;-1.755;0.148;-0.025;-0.320;
20190926_022203;-0.534;13.453;-2.552;0.033;-0.005;-0.395;
20190926_022203;0.407;9.349;-2.557;-0.055;0.004;-0.053;
20190926_022204;-0.809;10.977;-3.012;0.064;0.039;-0.343;
20190926_022204;0.019;9.467;-2.308;0.044;0.009;-0.118;
20190926_022204;-0.036;8.456;-2.526;0.151;0.015;-0.009;
20190926_022204;-0.024;9.503;-3.168;0.004;-0.005;-0.011;
20190926_022204;0.077;9.385;-2.875;0.005;0.000;-0.004;
20190926_022204;0.036;9.421;-2.868;-0.064;0.005;0.082;
20190926_022204;0.129;9.392;-3.021;-0.014;-0.002;0.067;
20190926_022204;0.323;9.402;-2.830;0.011;0.004;-0.022;
20190926_022204;0.278;9.402;-3.136;-0.008;-0.006;-0.021;
20190926_022205;0.326;9.412;-2.947;0.001;0.002;-0.004;
20190926_022205;0.208;9.345;-2.885;-0.073;0.011;0.002;
20190926_022205;0.579;8.629;-2.873;-0.019;-0.014;0.137;
20190926_022205;0.965;9.306;-3.261;0.064;0.006;0.265;
20190926_022205;0.493;9.459;-2.370;-0.152;0.031;-0.063;
20190926_022205;-0.206;9.929;-2.591;0.047;0.020;-0.700;
20190926_022205;0.012;9.342;-2.363;0.010;-0.006;0.043;
20190926_022205;-0.850;4.812;-2.219;0.023;-0.015;-0.012;
20190926_022205;0.151;9.170;-3.321;0.008;0.014;0.022;
20190926_022205;1.310;11.191;-2.693;0.047;0.032;-0.155;
20190926_022206;-2.143;8.042;-2.629;-0.068;0.031;-0.678;
20190926_022206;-0.029;9.232;-2.765;-0.037;0.009;0.020;
20190926_022206;-0.079;9.201;-2.916;-0.009;0.002;0.003;
20190926_022206;-0.072;9.261;-2.935;-0.007;0.000;0.010;
20190926_022206;-0.069;9.220;-2.930;-0.007;0.001;0.005;
20190926_022206;-0.043;9.266;-2.909;-0.004;0.001;0.025;
20190926_022206;-0.153;9.249;-2.962;-0.001;-0.002;0.020;
20190926_022206;-0.089;9.304;-2.880;-0.008;0.001;0.002;
20190926_022206;2.828;8.231;-3.072;-0.006;-0.034;0.546;
20190926_022207;0.340;9.215;-2.933;-0.020;0.008;-0.027;
20190926_022207;0.362;9.194;-2.828;-0.024;0.005;-0.011;
20190926_022207;0.393;9.163;-2.890;-0.008;0.001;-0.001;
20190926_022207;0.381;9.191;-2.902;-0.004;0.000;-0.002;
20190926_022207;0.321;9.225;-2.907;-0.003;-0.001;-0.002;
20190926_022207;0.393;9.194;-2.938;-0.003;-0.002;-0.001;
20190926_022207;0.340;9.191;-2.854;-0.029;-0.005;-0.010;
20190926_022207;0.309;9.208;-2.897;-0.018;-0.003;-0.009;
20190926_022207;0.352;9.208;-2.995;0.013;-0.018;-0.021;
20190926_022207;0.268;9.215;-2.854;-0.031;0.009;-0.045;
20190926_022208;0.165;9.129;-2.758;-0.043;0.023;-0.039;
20190926_022208;0.242;9.266;-2.775;-0.010;-0.001;-0.001;
20190926_022208;0.254;9.234;-2.828;0.019;-0.009;0.004;
20190926_022208;0.297;9.222;-2.921;0.056;0.007;0.009;
20190926_022208;0.280;9.177;-2.859;-0.003;0.001;-0.000;
20190926_022208;0.299;9.222;-2.919;-0.003;0.000;-0.000;
20190926_022208;0.294;9.146;-2.859;-0.003;0.000;-0.002;
20190926_022208;0.273;9.155;-2.847;-0.003;-0.001;-0.001;
20190926_022208;0.259;9.148;-2.878;-0.002;0.000;-0.002;
20190926_022208;0.338;9.115;-2.890;-0.003;0.001;-0.001;
20190926_022209;0.297;9.163;-2.883;-0.002;0.000;-0.004;
20190926_022209;0.338;9.242;-2.923;-0.002;-0.001;-0.001;
20190926_022209;0.316;9.191;-2.866;-0.001;0.000;-0.002;
20190926_022209;0.266;9.194;-2.904;-0.002;0.001;-0.001;
20190926_022209;0.268;9.184;-2.938;-0.005;0.000;-0.002;
20190926_022209;0.292;9.170;-2.873;-0.001;-0.001;-0.004;
20190926_022209;0.311;9.170;-2.868;-0.002;-0.001;-0.002;
20190926_022209;0.273;9.210;-2.914;-0.001;0.000;-0.004;
20190926_022209;0.297;9.184;-2.895;-0.003;0.000;-0.004;
20190926_022210;0.338;9.189;-2.880;-0.002;0.000;-0.005;
20190926_022210;0.263;9.170;-2.863;-0.002;-0.001;-0.004;
20190926_022210;0.304;9.153;-2.873;-0.002;0.000;-0.004;
20190926_022210;0.306;9.160;-2.899;-0.001;-0.001;-0.004;
20190926_022210;0.311;9.158;-2.887;-0.003;-0.001;-0.004;
20190926_022210;0.328;9.127;-2.902;-0.004;-0.001;-0.004;
20190926_022210;0.309;9.189;-2.895;-0.003;-0.001;-0.004;
20190926_022210;0.302;9.194;-2.916;-0.003;-0.002;-0.006;
20190926_022210;0.335;9.225;-2.907;-0.004;-0.001;-0.004;
20190926_022210;0.285;9.170;-2.921;-0.005;-0.001;-0.005;
20190926_022211;0.354;9.213;-2.921;-0.005;0.001;-0.006;
20190926_022211;0.326;9.196;-2.954;-0.005;0.001;-0.004;
20190926_022211;0.297;9.177;-2.930;-0.004;-0.001;-0.004;
20190926_022211;0.306;9.206;-2.899;-0.005;0.000;-0.002;
20190926_022211;0.302;9.234;-2.892;-0.003;0.000;-0.002;
20190926_022211;0.285;9.194;-2.904;-0.002;0.001;-0.002;
20190926_022211;0.242;9.206;-2.823;-0.004;0.001;-0.001;
20190926_022211;0.285;9.254;-2.847;-0.003;0.000;-0.001;
20190926_022211;0.254;9.237;-2.890;-0.004;0.002;-0.001;
20190926_022212;0.239;9.196;-2.868;-0.001;0.002;-0.001;
20190926_022212;0.256;9.220;-2.897;-0.002;0.002;-0.000;
20190926_022212;0.220;9.165;-2.919;-0.002;0.001;0.001;
20190926_022212;0.239;9.215;-2.952;-0.002;0.001;-0.000;
20190926_022212;0.242;9.199;-2.952;0.010;0.000;-0.002;
20190926_022212;0.208;9.179;-2.909;-0.006;0.002;0.001;
20190926_022212;0.249;9.203;-2.899;-0.003;0.001;-0.000;
20190926_022212;0.218;9.203;-2.883;0.002;-0.001;-0.000;
20190926_022212;0.256;9.249;-2.959;-0.004;0.000;-0.001;
20190926_022212;0.237;9.225;-2.986;0.004;0.000;0.001;
20190926_022213;0.249;9.196;-2.954;0.001;-0.001;0.000;
20190926_022213;0.278;9.227;-2.885;0.000;-0.001;-0.001;
20190926_022213;0.223;9.175;-2.921;0.007;-0.001;0.001;
20190926_022213;0.261;9.208;-2.856;0.004;-0.001;0.000;
20190926_022213;0.244;9.246;-2.904;0.004;-0.002;0.002;
20190926_022213;0.280;9.220;-2.928;0.004;-0.002;0.000;
20190926_022213;0.237;9.256;-2.962;0.004;-0.001;0.000;
20190926_022213;0.271;9.237;-2.911;0.000;-0.002;0.000;
20190926_022213;0.304;9.230;-2.904;-0.002;-0.001;0.001;
20190926_022214;0.268;9.215;-2.935;-0.001;-0.002;0.000;
20190926_022214;0.268;9.230;-2.883;0.000;-0.001;0.000;
20190926_022214;0.261;9.249;-2.935;-0.002;-0.002;0.000;
20190926_022214;0.266;9.270;-2.947;0.002;-0.002;-0.001;
20190926_022214;0.271;9.263;-2.914;-0.003;-0.001;-0.001;
20190926_022214;0.321;9.278;-2.923;-0.003;-0.002;0.001;
20190926_022214;0.278;9.313;-3.062;-0.001;-0.001;0.000;
20190926_022214;0.218;9.266;-2.976;0.007;-0.002;-0.002;
20190926_022214;0.275;9.256;-2.930;0.007;-0.003;-0.002;
20190926_022214;0.328;9.261;-2.902;-0.002;-0.003;-0.001;
20190926_022215;0.314;9.194;-2.916;-0.007;0.000;0.000;
20190926_022215;0.290;9.242;-2.887;-0.004;0.000;-0.001;
20190926_022215;0.292;9.232;-2.863;-0.004;-0.001;-0.001;
20190926_022215;0.335;9.199;-2.928;-0.001;-0.002;-0.002;
20190926_022215;0.249;9.237;-2.907;0.002;-0.001;-0.003;
20190926_022215;0.318;9.218;-2.945;0.001;-0.001;-0.002;
20190926_022215;0.292;9.225;-2.952;0.000;-0.001;-0.002;
20190926_022215;0.318;9.234;-2.923;0.001;-0.001;-0.002;
20190926_022215;0.285;9.230;-2.959;0.002;0.000;-0.001;
20190926_022216;0.297;9.175;-2.895;0.005;-0.001;-0.001;
20190926_022216;0.280;9.278;-2.914;0.004;-0.002;-0.002;
20190926_022216;0.294;9.170;-2.907;-0.002;0.000;-0.001;
20190926_022216;0.280;9.222;-2.954;0.001;-0.001;-0.001;
20190926_022216;0.302;9.227;-2.909;0.001;-0.001;0.000;
20190926_022216;0.326;9.266;-2.966;0.000;0.000;-0.001;
20190926_022216;0.294;9.309;-2.911;0.002;0.001;0.000;
20190926_022216;0.290;9.175;-2.868;-0.001;0.000;0.000;
20190926_022216;0.299;9.237;-2.950;0.000;0.000;0.000;
20190926_022216;0.244;9.270;-2.959;0.000;-0.001;0.001;
20190926_022217;0.306;9.268;-2.897;0.001;0.000;0.002;
20190926_022217;0.287;9.177;-2.914;0.001;0.001;0.001;
20190926_022217;0.294;9.249;-2.952;0.002;0.001;0.002;
20190926_022217;0.259;9.210;-2.921;-0.000;0.001;0.002;
20190926_022217;0.230;9.199;-2.950;-0.002;0.000;0.001;
20190926_022217;0.244;9.273;-2.950;0.002;0.001;0.002;
20190926_022217;0.244;9.182;-2.954;0.001;0.001;0.001;
20190926_022217;0.223;9.301;-2.969;0.008;-0.001;-0.001;
20190926_022217;0.328;9.266;-2.919;0.001;0.002;0.002;
20190926_022218;0.235;9.194;-2.875;0.003;0.001;0.002;
20190926_022218;0.237;9.230;-2.926;0.001;0.001;0.002;
20190926_022218;0.237;9.225;-2.935;0.003;0.000;0.001;
20190926_022218;0.223;9.244;-2.904;-0.000;0.000;0.001;
20190926_022218;0.251;9.230;-2.971;0.002;0.001;0.002;
20190926_022218;0.283;9.220;-2.923;-0.000;0.001;0.002;
20190926_022218;0.247;9.275;-2.935;-0.000;0.001;0.001;
20190926_022218;0.256;9.266;-2.911;0.003;0.000;0.002;
20190926_022218;0.280;9.222;-2.854;-0.000;0.000;0.002;
20190926_022218;0.232;9.251;-2.871;-0.002;0.001;0.002;
20190926_022219;0.256;9.225;-2.964;-0.000;0.000;0.001;
20190926_022219;0.261;9.251;-3.007;-0.002;0.000;-0.000;
20190926_022219;0.294;9.292;-2.954;0.004;-0.001;-0.000;
20190926_022219;0.278;9.270;-2.938;0.001;0.000;-0.001;
20190926_022219;0.263;9.230;-2.954;0.002;0.000;-0.000;
20190926_022219;0.259;9.234;-2.914;0.001;0.000;0.001;
20190926_022219;0.294;9.258;-2.930;-0.000;0.000;-0.000;
20190926_022219;0.275;9.232;-2.940;0.001;-0.002;-0.000;
20190926_022219;0.290;9.249;-2.962;-0.000;-0.002;-0.000;
20190926_022220;0.275;9.215;-2.966;-0.002;-0.002;0.001;
20190926_022220;0.306;9.177;-2.954;-0.003;-0.001;-0.000;
20190926_022220;0.263;9.227;-2.966;-0.001;-0.001;-0.000;
20190926_022220;0.297;9.258;-2.930;-0.001;-0.001;-0.000;
20190926_022220;0.306;9.196;-2.940;-0.000;-0.003;-0.001;
20190926_022220;0.271;9.246;-2.880;-0.000;-0.001;-0.001;
20190926_022220;0.306;9.256;-2.914;0.001;-0.001;-0.001;
20190926_022220;0.311;9.301;-2.935;0.005;-0.002;-0.000;
20190926_022220;0.309;9.275;-2.971;0.003;-0.001;-0.000;
20190926_022221;0.299;9.261;-2.962;-0.000;0.000;-0.000;
20190926_022221;0.287;9.218;-2.883;-0.001;-0.001;0.001;
20190926_022221;0.318;9.234;-2.866;0.001;0.000;-0.000;
20190926_022221;0.326;9.275;-2.935;-0.000;-0.001;0.001;
20190926_022221;0.302;9.184;-2.974;0.001;-0.001;0.001;
20190926_022221;0.292;9.206;-2.885;0.001;0.000;0.001;
20190926_022221;0.287;9.230;-2.978;-0.000;0.001;0.001;
20190926_022221;0.309;9.263;-2.926;0.002;0.000;0.002;
20190926_022221;0.271;9.287;-2.981;-0.000;0.000;0.002;
20190926_022221;0.306;9.251;-2.978;-0.000;0.001;0.003;
20190926_022222;0.263;9.242;-2.950;0.001;0.001;0.002;
20190926_022222;0.280;9.254;-2.861;-0.001;0.001;0.002;
20190926_022222;0.259;9.222;-2.859;-0.001;0.002;0.003;
20190926_022222;0.230;9.215;-2.892;-0.001;0.002;0.003;
20190926_022222;0.259;9.254;-2.904;0.001;0.000;0.003;
20190926_022222;0.232;9.254;-2.945;0.001;0.001;0.003;
20190926_022222;0.235;9.230;-2.945;0.002;0.001;0.002;
20190926_022222;0.249;9.191;-2.935;0.002;0.001;0.002;
20190926_022222;0.266;9.261;-2.904;-0.000;0.001;0.002;
20190926_022222;0.208;9.342;-2.916;0.003;0.001;0.002;
20190926_022223;0.237;9.285;-2.935;0.004;0.000;0.002;
20190926_022223;0.232;9.251;-2.923;0.001;0.002;0.003;
20190926_022223;0.242;9.280;-2.962;0.002;0.000;0.001;
20190926_022223;0.225;9.266;-2.966;0.002;0.000;0.003;
20190926_022223;0.225;9.227;-2.914;0.001;0.000;0.001;
20190926_022223;0.172;10.101;-4.056;-0.015;0.005;0.005;
20190926_022223;0.259;9.115;-2.626;0.018;-0.001;0.004;
20190926_022223;0.211;9.218;-2.854;-0.005;0.002;0.002;
20190926_022223;0.225;9.208;-2.930;-0.009;0.003;0.004;
20190926_022224;0.206;9.232;-2.919;0.002;0.001;0.003;
20190926_022224;0.251;9.242;-2.947;-0.000;0.001;0.002;
20190926_022224;0.225;9.191;-2.911;0.002;0.000;0.003;
20190926_022224;0.230;9.261;-2.935;0.003;0.000;0.003;
20190926_022224;0.225;9.189;-2.938;0.003;-0.001;0.002;
20190926_022224;0.251;9.263;-2.957;0.001;-0.002;0.001;
20190926_022224;0.220;9.254;-2.904;0.001;0.001;0.003;
20190926_022224;0.235;9.254;-2.878;0.002;-0.001;0.002;
20190926_022224;0.259;9.256;-2.950;0.004;-0.001;0.002;
20190926_022224;0.225;9.263;-2.942;0.002;0.000;0.003;
20190926_022225;0.230;9.249;-2.919;-0.000;-0.001;0.003;
20190926_022225;0.213;9.306;-2.904;-0.001;0.000;0.004;
20190926_022225;0.213;9.285;-2.904;-0.000;0.001;0.004;
20190926_022225;0.220;9.239;-2.907;-0.002;-0.001;0.004;
20190926_022225;0.225;9.273;-2.909;0.002;-0.001;0.003;
20190926_022225;0.213;9.282;-2.911;0.001;-0.001;0.002;
20190926_022225;0.249;9.256;-2.942;-0.002;0.000;0.003;
20190926_022225;0.206;9.278;-2.938;-0.001;-0.001;0.002;
20190926_022225;0.225;9.309;-2.930;0.004;-0.001;0.001;
20190926_022226;0.235;9.278;-2.933;0.001;-0.001;0.001;
20190926_022226;0.242;9.256;-2.952;-0.001;-0.001;0.002;
20190926_022226;0.227;9.256;-2.952;-0.001;-0.003;-0.002;
20190926_022226;0.254;9.321;-2.976;0.003;-0.003;-0.003;
20190926_022226;0.297;9.232;-2.959;-0.001;-0.003;-0.003;
20190926_022226;0.294;9.251;-2.959;-0.001;-0.003;-0.003;
20190926_022226;0.285;9.244;-2.938;0.001;-0.003;-0.003;
20190926_022226;0.278;9.222;-2.923;-0.000;-0.003;-0.004;
20190926_022226;0.340;9.266;-2.954;0.001;-0.004;-0.004;
20190926_022226;0.302;9.232;-2.952;0.003;-0.002;-0.004;
20190926_022227;0.302;9.227;-2.890;0.003;-0.004;-0.004;
20190926_022227;0.297;9.227;-2.945;0.004;-0.003;-0.005;
20190926_022227;0.318;9.282;-2.940;0.002;-0.003;-0.004;
20190926_022227;0.323;9.246;-2.919;0.001;-0.003;-0.003;
20190926_022227;0.294;9.242;-2.928;-0.000;-0.001;-0.002;
20190926_022227;0.273;9.280;-2.935;0.001;-0.001;-0.002;
20190926_022227;0.323;9.311;-2.986;0.002;-0.001;-0.002;
20190926_022227;0.340;9.256;-2.933;-0.003;0.001;-0.001;
20190926_022227;0.318;9.273;-2.928;0.002;-0.002;-0.001;
20190926_022228;0.261;9.261;-2.988;0.002;-0.001;-0.002;
20190926_022228;0.306;9.278;-2.962;-0.000;-0.001;-0.001;
20190926_022228;0.275;9.299;-2.983;0.003;0.000;-0.002;
20190926_022228;0.306;9.278;-2.942;-0.001;0.000;-0.001;
20190926_022228;0.318;9.261;-2.887;-0.001;0.000;-0.002;
20190926_022228;0.304;9.246;-2.892;-0.000;0.000;-0.001;
20190926_022228;0.283;9.261;-2.940;-0.000;0.001;-0.002;
20190926_022228;0.285;9.258;-2.895;0.002;-0.001;-0.002;
20190926_022228;0.285;9.237;-2.852;0.002;0.000;-0.002;
20190926_022229;0.268;9.249;-2.887;0.002;-0.001;-0.002;
20190926_022229;0.268;9.203;-2.878;-0.000;-0.001;-0.003;
20190926_022229;0.263;9.282;-2.914;-0.001;0.002;0.000;
20190926_022229;0.271;9.232;-2.892;-0.000;0.002;-0.001;
20190926_022229;0.328;9.261;-2.930;-0.003;0.002;0.001;
20190926_022229;0.271;9.246;-2.969;0.001;0.003;0.000;
20190926_022229;0.254;9.251;-2.938;-0.003;0.004;0.001;
20190926_022229;0.259;9.218;-2.921;-0.000;0.003;0.000;
20190926_022229;0.254;9.261;-2.904;0.001;0.002;0.001;
20190926_022229;0.239;9.268;-2.938;0.001;0.003;0.001;
20190926_022230;0.225;9.239;-2.933;0.001;0.003;0.002;
20190926_022230;0.256;9.251;-2.933;0.001;0.002;0.002;
20190926_022230;0.211;9.254;-2.950;0.003;0.002;0.001;
20190926_022230;0.275;9.292;-2.878;0.001;0.002;0.002;
20190926_022230;0.271;9.256;-2.849;-0.004;0.004;0.002;
20190926_022230;0.187;9.318;-2.983;-0.001;0.003;0.003;
20190926_022230;0.266;9.268;-2.964;-0.003;0.003;0.004;
20190926_022230;0.223;9.263;-2.916;-0.003;0.003;0.003;
20190926_022230;0.244;9.266;-2.875;-0.004;0.003;0.004;
20190926_022231;0.206;9.237;-2.923;-0.003;0.003;0.004;
20190926_022231;0.223;9.222;-2.890;-0.004;0.003;0.004;
20190926_022231;0.199;9.254;-2.887;-0.003;0.002;0.004;
20190926_022231;0.220;9.299;-2.964;0.002;0.003;0.004;
20190926_022231;0.204;9.254;-3.014;0.001;0.003;0.005;
20190926_022231;0.182;9.225;-2.916;-0.000;0.004;0.005;
20190926_022231;0.184;9.256;-2.914;-0.000;0.003;0.005;
20190926_022231;0.199;9.268;-2.954;-0.004;0.003;0.007;
20190926_022231;0.227;9.218;-2.911;-0.004;0.003;0.005;
20190926_022231;0.261;9.340;-2.938;-0.003;0.002;0.007;
20190926_022232;0.220;9.270;-2.916;-0.001;0.002;0.004;
20190926_022232;0.237;9.251;-2.947;0.001;0.002;0.005;
20190926_022232;0.225;9.246;-2.897;0.001;0.002;0.005;
20190926_022232;0.213;9.268;-2.904;0.001;0.003;0.004;
20190926_022232;0.196;9.251;-2.926;-0.000;0.001;0.004;
20190926_022232;0.201;9.275;-2.880;-0.000;-0.000;0.004;
20190926_022232;0.235;9.266;-2.902;-0.000;0.001;0.004;
20190926_022232;0.201;9.256;-2.914;-0.000;0.001;0.003;
20190926_022232;0.237;9.215;-2.890;-0.001;0.001;0.003;
20190926_022232;0.247;9.237;-2.904;-0.003;-0.000;0.003;
20190926_022233;0.247;9.230;-2.923;-0.003;-0.000;0.002;
20190926_022233;0.271;9.258;-2.878;-0.004;-0.000;0.002;
20190926_022233;0.278;9.225;-2.914;-0.002;-0.002;-0.001;
20190926_022233;0.259;9.196;-2.909;0.002;-0.002;-0.002;
20190926_022233;0.251;9.208;-2.883;-0.000;-0.002;-0.002;
20190926_022233;0.263;9.251;-2.928;0.002;-0.001;-0.002;
20190926_022233;0.259;9.163;-2.887;0.001;-0.002;-0.003;
20190926_022233;0.259;9.203;-2.902;-0.000;-0.002;-0.002;
20190926_022233;0.268;9.218;-2.933;0.001;-0.001;-0.003;
20190926_022234;0.259;9.203;-2.926;-0.002;-0.000;-0.002;
20190926_022234;0.278;9.232;-2.895;-0.001;-0.000;-0.002;
20190926_022234;0.227;9.258;-2.914;-0.002;-0.000;-0.001;
20190926_022234;0.259;9.206;-2.933;0.002;-0.000;-0.001;
20190926_022234;0.268;9.220;-2.930;-0.001;-0.001;-0.001;
20190926_022234;0.199;9.177;-2.856;-0.002;-0.001;-0.001;
20190926_022234;0.259;9.182;-2.957;-0.000;0.001;-0.001;
20190926_022234;0.230;9.184;-2.899;-0.001;-0.000;-0.002;
20190926_022234;0.227;9.218;-2.928;-0.000;-0.001;0.001;
20190926_022234;0.230;9.208;-2.921;-0.001;-0.001;-0.002;
20190926_022235;0.218;9.270;-2.988;-0.001;-0.001;-0.001;
20190926_022235;0.211;9.242;-2.933;-0.002;-0.001;-0.001;
20190926_022235;0.223;9.239;-2.919;-0.000;-0.000;0.000;
20190926_022235;0.220;9.237;-2.938;-0.001;-0.000;-0.001;
20190926_022235;0.235;9.285;-2.938;-0.000;-0.001;-0.002;
20190926_022235;0.230;9.246;-2.933;0.001;-0.000;-0.002;
20190926_022235;0.225;9.234;-2.933;-0.003;-0.001;-0.002;
20190926_022235;0.249;9.182;-2.907;-0.001;-0.001;-0.002;
20190926_022235;0.204;9.222;-2.995;0.001;-0.003;-0.004;
20190926_022236;0.271;9.251;-2.947;-0.002;-0.001;-0.003;
20190926_022236;0.220;9.230;-2.911;-0.000;-0.003;-0.004;
20190926_022236;0.184;9.203;-2.861;0.002;-0.003;-0.002;
20190926_022236;0.271;9.203;-2.904;-0.000;-0.003;-0.003;
20190926_022236;0.251;9.222;-2.916;-0.001;-0.002;-0.004;
20190926_022236;0.251;9.242;-2.930;-0.000;-0.003;-0.003;
20190926_022236;0.278;9.182;-2.911;-0.001;-0.001;-0.004;
20190926_022236;0.254;9.227;-2.914;0.003;-0.003;-0.005;
20190926_022236;0.213;9.225;-2.916;-0.001;-0.002;-0.002;
20190926_022237;0.223;9.167;-2.854;-0.002;-0.002;-0.002;
20190926_022237;0.235;9.191;-2.883;-0.003;-0.002;-0.003;
20190926_022237;0.215;9.191;-2.856;-0.001;-0.001;-0.003;
20190926_022237;0.254;9.170;-2.880;-0.000;-0.002;-0.002;
20190926_022237;0.263;9.167;-2.899;0.001;-0.002;-0.001;
20190926_022237;0.235;9.201;-2.954;0.002;-0.002;-0.002;
20190926_022237;0.237;9.187;-2.875;0.003;-0.001;-0.002;
20190926_022237;0.232;9.213;-2.907;0.003;-0.000;-0.002;
20190926_022237;0.273;9.191;-2.947;0.001;-0.001;-0.001;
20190926_022238;0.215;9.182;-2.859;-0.002;-0.001;0.000;
20190926_022238;0.201;9.153;-2.880;-0.003;-0.002;0.000;
20190926_022238;0.175;9.199;-2.899;0.004;-0.001;-0.001;
20190926_022238;0.201;9.218;-2.873;0.001;0.000;0.001;
20190926_022238;0.199;9.266;-2.935;0.000;0.000;0.001;
20190926_022238;0.223;9.184;-2.875;0.002;0.000;0.002;
20190926_022238;0.237;9.285;-2.962;0.004;-0.001;0.001;
20190926_022238;0.208;9.225;-2.852;0.009;0.000;0.001;
20190926_022238;0.177;9.258;-2.899;0.004;-0.001;0.001;
20190926_022238;0.184;9.239;-2.899;0.000;0.003;0.001;
20190926_022239;0.177;9.246;-2.885;0.002;0.000;0.001;
20190926_022239;0.194;9.261;-2.911;-0.001;0.001;0.002;
20190926_022239;0.187;9.256;-2.904;-0.003;0.001;0.000;
20190926_022239;0.208;9.311;-2.933;-0.004;0.000;0.001;
20190926_022239;0.204;9.249;-2.880;0.001;0.000;0.001;
20190926_022239;0.239;9.297;-2.935;0.001;0.000;0.001;
20190926_022239;0.213;9.313;-2.950;-0.001;-0.001;0.001;
20190926_022239;0.227;9.311;-2.885;-0.004;-0.001;0.000;
20190926_022239;0.168;9.347;-2.880;0.002;0.000;0.001;
20190926_022239;0.189;9.352;-2.959;-0.001;0.000;0.000;
20190926_022240;0.182;9.380;-2.938;-0.001;-0.001;0.000;
20190926_022240;0.199;9.357;-2.945;0.003;0.000;0.000;
20190926_022240;0.232;9.431;-2.964;0.003;-0.002;0.000;
20190926_022240;0.215;9.414;-2.938;0.003;-0.002;-0.001;
20190926_022240;0.220;9.385;-2.974;0.004;-0.001;-0.002;
20190926_022240;0.232;9.443;-2.981;0.003;-0.002;-0.002;
20190926_022240;0.251;9.436;-3.033;0.001;-0.001;-0.001;
20190926_022240;0.247;9.395;-3.014;0.004;-0.001;-0.001;
20190926_022240;0.211;9.407;-2.923;0.002;-0.002;-0.001;
20190926_022241;0.235;9.464;-3.024;0.006;-0.003;-0.002;
20190926_022241;0.254;9.474;-3.014;0.004;-0.002;-0.002;
20190926_022241;0.280;9.481;-2.962;0.001;-0.002;-0.002;
20190926_022241;0.263;9.519;-3.017;0.000;-0.001;-0.001;
20190926_022241;0.285;9.464;-3.026;0.003;-0.002;-0.003;
20190926_022241;0.239;9.507;-3.086;0.004;-0.002;-0.002;
20190926_022241;0.254;9.543;-3.017;0.005;-0.002;-0.001;
20190926_022241;0.261;9.515;-3.000;0.000;-0.002;-0.002;
20190926_022241;0.256;9.543;-3.031;0.002;-0.002;-0.001;
20190926_022242;0.259;9.527;-3.062;0.004;-0.002;-0.001;
20190926_022242;0.244;9.538;-3.014;0.003;-0.002;-0.002;
20190926_022242;0.256;9.596;-3.067;0.003;-0.002;-0.002;
20190926_022242;0.266;9.606;-3.038;0.002;-0.002;-0.003;
20190926_022242;0.251;9.598;-3.072;0.001;-0.002;-0.002;
20190926_022242;0.273;9.579;-3.091;0.011;-0.001;-0.002;
20190926_022242;0.263;9.574;-3.091;0.010;-0.002;-0.003;
20190926_022242;0.283;9.570;-3.096;0.006;-0.002;-0.002;
20190926_022242;0.318;9.634;-3.134;0.003;-0.001;-0.001;
20190926_022242;0.239;9.574;-3.005;0.002;-0.001;-0.001;
20190926_022243;0.283;9.541;-3.029;0.001;-0.001;-0.001;
20190926_022243;0.271;9.579;-2.998;-0.001;-0.001;-0.001;
20190926_022243;0.261;9.555;-3.019;-0.002;-0.001;-0.002;
20190926_022243;0.247;9.610;-3.048;-0.001;0.001;-0.000;
20190926_022243;0.263;9.637;-3.124;0.006;0.001;-0.000;
20190926_022243;0.237;9.634;-3.115;0.007;0.001;-0.001;
20190926_022243;0.268;9.622;-3.079;0.004;0.001;-0.000;
20190926_022243;0.237;9.579;-3.060;0.001;0.001;0.001;
20190926_022243;0.287;9.558;-3.065;0.002;0.001;-0.001;
20190926_022244;0.208;9.594;-3.045;-0.004;0.003;0.001;
20190926_022244;0.244;9.598;-3.033;-0.004;0.002;0.001;
20190926_022244;0.287;9.577;-3.160;-0.001;0.002;0.001;
20190926_022244;0.261;9.646;-3.096;-0.002;0.001;0.001;
20190926_022244;0.254;9.644;-3.053;-0.002;0.002;0.001;
20190926_022244;0.266;9.601;-3.055;0.002;0.001;-0.000;
20190926_022244;0.254;9.606;-3.038;-0.004;0.001;0.001;
20190926_022244;0.285;9.661;-3.055;-0.003;0.001;-0.000;
20190926_022244;0.275;9.677;-3.091;0.004;0.002;-0.000;
20190926_022244;0.364;9.644;-3.294;0.004;-0.002;-0.001;
20190926_022245;0.290;9.625;-3.074;-0.002;-0.000;0.002;
20190926_022245;0.287;9.644;-3.038;-0.003;0.001;0.001;
20190926_022245;0.328;9.663;-3.084;0.002;0.001;0.001;
20190926_022245;0.292;9.694;-3.057;0.005;-0.001;0.001;
20190926_022245;0.263;9.675;-3.110;-0.001;0.001;0.001;
20190926_022245;0.271;9.649;-3.120;0.001;0.002;0.002;
20190926_022245;0.311;9.675;-3.084;-0.002;-0.000;0.001;
20190926_022245;0.287;9.653;-3.122;-0.005;0.001;0.002;
20190926_022245;0.294;9.675;-3.175;0.001;-0.000;0.002;
20190926_022246;0.287;9.687;-3.079;0.003;0.001;0.001;
20190926_022246;0.294;9.620;-3.124;-0.003;0.001;0.001;
20190926_022246;0.294;9.651;-3.069;-0.003;0.002;0.001;
20190926_022246;0.309;9.589;-3.079;-0.002;0.001;0.002;
20190926_022246;0.314;9.653;-3.122;0.002;0.001;0.003;
20190926_022246;0.266;9.665;-3.139;0.003;0.001;0.002;
20190926_022246;0.290;9.675;-3.069;0.001;0.002;0.003;
20190926_022246;0.316;9.658;-3.100;0.002;0.001;0.003;
20190926_022246;0.273;9.644;-3.077;-0.002;0.002;0.002;
20190926_022246;0.311;9.692;-3.084;-0.001;0.003;0.003;
20190926_022247;0.280;9.651;-3.079;-0.001;0.002;0.002;
20190926_022247;0.273;9.641;-3.115;-0.001;0.003;0.004;
20190926_022247;0.290;9.606;-3.093;0.001;0.001;0.002;
20190926_022247;0.309;9.641;-3.057;-0.001;0.003;0.002;
20190926_022247;0.297;9.658;-3.024;0.002;0.002;0.003;
20190926_022247;0.299;9.634;-3.089;0.002;0.003;0.002;
20190926_022247;0.278;9.637;-3.079;-0.004;0.004;0.003;
20190926_022247;0.249;9.665;-3.060;-0.002;0.003;0.004;
20190926_022247;0.290;9.675;-3.096;-0.001;0.003;0.003;
20190926_022248;0.263;9.632;-3.000;0.001;0.003;0.003;
20190926_022248;0.309;9.711;-3.072;0.002;0.003;0.004;
20190926_022248;0.266;9.658;-3.127;-0.001;0.004;0.004;
20190926_022248;0.259;9.637;-3.100;-0.001;0.001;0.003;
20190926_022248;0.249;9.697;-3.062;-0.003;-0.001;0.001;
20190926_022248;0.244;9.711;-3.158;-0.001;0.001;-0.000;
20190926_022248;0.275;9.637;-3.148;-0.000;-0.001;0.002;
20190926_022248;0.271;9.673;-3.139;0.002;0.001;-0.000;
20190926_022248;0.271;9.656;-3.108;-0.001;0.001;0.001;
20190926_022248;0.318;9.713;-3.115;0.001;0.001;0.002;
20190926_022249;0.278;9.699;-3.050;-0.001;0.002;0.001;
20190926_022249;0.271;9.728;-3.105;-0.000;0.001;0.002;
20190926_022249;0.271;9.661;-3.127;-0.001;0.002;0.002;
20190926_022249;0.278;9.668;-3.110;-0.000;0.001;0.001;
20190926_022249;0.251;9.668;-3.144;-0.000;0.001;0.001;
20190926_022249;0.299;9.720;-3.165;0.002;0.001;0.001;
20190926_022249;0.259;9.594;-3.108;-0.000;-0.001;0.001;
20190926_022249;0.273;9.656;-3.112;-0.001;0.002;0.002;
20190926_022249;0.285;9.618;-3.091;0.001;-0.001;0.001;
20190926_022250;0.251;9.613;-3.029;0.003;0.001;0.001;
20190926_022250;0.266;9.601;-3.144;0.001;0.001;0.002;
20190926_022250;0.268;9.646;-3.084;-0.005;0.002;0.003;
20190926_022250;0.278;9.620;-3.081;-0.005;0.001;0.002;
20190926_022250;0.285;9.620;-3.091;-0.005;0.001;0.003;
20190926_022250;0.242;9.601;-3.103;-0.002;0.001;0.002;
20190926_022250;0.294;9.613;-2.993;-0.001;0.001;0.001;
20190926_022250;0.297;9.601;-3.031;-0.002;0.002;0.002;
20190926_022250;0.292;9.541;-3.110;-0.001;-0.001;0.002;
20190926_022251;0.278;9.555;-3.021;-0.000;0.001;0.001;
20190926_022251;0.309;9.589;-3.048;-0.004;0.002;0.002;
20190926_022251;0.314;9.562;-3.033;-0.003;0.001;0.001;
20190926_022251;0.278;9.548;-3.086;-0.002;0.002;0.002;
20190926_022251;0.273;9.555;-3.050;-0.000;0.003;0.001;
20190926_022251;0.259;9.625;-3.060;-0.000;0.002;0.002;
20190926_022251;0.268;9.594;-3.079;0.003;0.002;0.002;
20190926_022251;0.287;9.522;-3.084;0.001;0.002;0.001;
20190926_022251;0.316;9.562;-3.067;-0.003;0.001;0.002;
20190926_022251;0.294;9.524;-2.990;-0.002;0.003;0.001;
20190926_022252;0.283;9.495;-3.050;-0.003;0.002;0.002;
20190926_022252;0.316;9.531;-3.036;-0.002;0.003;0.002;
20190926_022252;0.275;9.510;-3.038;-0.003;0.001;0.001;
20190926_022252;0.273;9.515;-3.060;-0.002;0.002;0.001;
20190926_022252;0.314;9.483;-3.048;-0.002;0.003;0.001;
20190926_022252;0.302;9.582;-3.062;0.001;0.002;0.002;
20190926_022252;0.271;9.536;-3.045;-0.001;0.002;0.002;
20190926_022252;0.275;9.498;-3.005;-0.002;0.002;0.002;
20190926_022252;0.271;9.507;-3.041;-0.003;0.003;0.001;
20190926_022253;0.278;9.548;-3.043;-0.000;0.002;0.002;
20190926_022253;0.309;9.438;-3.017;-0.003;0.002;0.002;
20190926_022253;0.273;9.529;-3.043;-0.003;0.003;0.002;
20190926_022253;0.275;9.517;-3.038;-0.000;0.004;0.001;
20190926_022253;0.251;9.522;-3.019;-0.000;0.001;0.000;
20190926_022253;0.256;9.512;-3.055;0.004;0.001;0.000;
20190926_022253;0.230;9.598;-3.057;0.002;0.001;0.000;
20190926_022253;0.244;9.546;-3.021;0.004;0.001;0.000;
20190926_022253;0.280;9.517;-3.043;0.001;0.001;-0.001;
20190926_022253;0.321;9.541;-3.079;0.005;0.001;-0.001;
20190926_022254;0.283;9.536;-3.062;-0.002;0.001;-0.001;
20190926_022254;0.263;9.517;-3.021;-0.001;-0.001;0.000;
20190926_022254;0.259;9.548;-3.050;0.002;-0.001;0.000;
20190926_022254;0.268;9.522;-3.017;-0.002;0.002;0.000;
20190926_022254;0.268;9.448;-2.995;-0.009;0.003;0.000;
20190926_022254;0.249;9.534;-3.036;-0.005;0.002;0.000;
20190926_022254;0.311;9.503;-3.007;-0.004;0.001;-0.001;
20190926_022254;0.294;9.553;-3.081;0.003;-0.002;-0.001;
20190926_022254;0.328;9.560;-3.105;0.003;-0.001;-0.001;
20190926_022255;0.309;9.582;-3.134;0.005;-0.003;-0.002;
20190926_022255;0.309;9.534;-3.086;0.004;-0.001;-0.001;
20190926_022255;0.297;9.536;-3.139;0.006;-0.002;-0.002;
20190926_022255;0.311;9.534;-3.074;-0.001;0.001;0.000;
20190926_022255;0.297;9.610;-3.129;0.004;-0.002;-0.001;
20190926_022255;0.297;9.481;-3.053;-0.002;0.001;-0.002;
20190926_022255;0.297;9.524;-3.021;-0.002;-0.001;-0.002;
20190926_022255;0.321;9.512;-3.048;0.002;-0.002;-0.002;
20190926_022255;0.283;9.512;-3.038;0.004;-0.001;-0.002;
20190926_022255;0.275;9.527;-3.014;-0.000;-0.001;-0.003;
20190926_022256;0.266;9.534;-3.048;-0.001;-0.001;-0.001;
20190926_022256;0.294;9.543;-3.117;0.003;-0.002;-0.001;
20190926_022256;0.302;9.577;-3.065;0.001;-0.001;-0.002;
20190926_022256;0.340;9.579;-3.093;-0.003;-0.001;-0.002;
20190926_022256;0.318;9.512;-3.050;-0.003;-0.001;-0.002;
20190926_022256;0.321;9.519;-3.019;-0.004;-0.001;-0.002;
20190926_022256;0.318;9.467;-3.055;-0.001;0.001;-0.003;
20190926_022256;0.314;9.452;-3.055;-0.003;0.001;-0.003;
20190926_022256;0.280;9.452;-3.077;-0.000;0.001;-0.002;
20190926_022257;0.235;9.443;-3.026;-0.000;-0.002;-0.002;
20190926_022257;0.285;9.383;-3.050;-0.000;-0.001;-0.003;
20190926_022257;0.259;9.395;-3.048;0.001;-0.001;-0.002;
20190926_022257;0.273;9.309;-3.029;-0.000;-0.001;-0.002;
20190926_022257;0.302;9.290;-3.024;0.002;0.002;-0.002;
20190926_022257;0.280;9.258;-2.983;-0.001;0.001;-0.003;
20190926_022257;0.318;9.222;-2.940;-0.000;-0.001;-0.002;
20190926_022257;0.354;9.227;-2.930;-0.004;-0.001;-0.002;
20190926_022257;0.333;9.194;-2.947;-0.002;-0.002;-0.004;
20190926_022257;0.311;9.218;-2.938;-0.004;-0.001;-0.003;
20190926_022258;0.290;9.134;-2.890;-0.004;0.001;-0.003;
20190926_022258;0.292;9.141;-2.875;-0.001;0.002;-0.002;
20190926_022258;0.309;9.158;-2.923;-0.003;0.001;-0.003;
20190926_022258;0.287;9.129;-2.940;-0.003;-0.001;-0.003;
20190926_022258;0.318;9.170;-2.909;-0.004;0.002;-0.003;
20190926_022258;0.278;9.170;-2.895;-0.001;-0.000;-0.000;
20190926_022258;0.302;9.093;-2.873;-0.004;0.002;-0.000;
20190926_022258;0.294;9.103;-2.899;-0.005;0.001;-0.000;
20190926_022258;0.280;9.146;-2.940;-0.000;-0.000;-0.001;
20190926_022259;0.275;9.153;-2.971;-0.000;0.002;-0.000;
20190926_022259;0.278;9.108;-2.976;-0.001;0.001;-0.000;
20190926_022259;0.254;9.206;-2.935;-0.000;0.001;-0.000;
20190926_022259;0.273;9.088;-2.914;-0.001;0.003;0.001;
20190926_022259;0.273;9.158;-2.892;-0.001;0.002;-0.000;
20190926_022259;0.283;9.124;-2.902;-0.002;0.001;-0.000;
20190926_022259;0.280;9.136;-2.940;-0.002;0.002;0.002;
20190926_022259;0.247;9.148;-2.966;-0.000;0.002;0.001;
20190926_022259;0.251;9.100;-2.940;-0.002;0.002;0.001;
20190926_022259;0.237;9.148;-2.935;0.001;0.002;0.003;
20190926_022300;0.273;9.151;-2.990;-0.001;0.001;0.002;
20190926_022300;0.254;9.129;-2.926;-0.002;0.003;0.003;
20190926_022300;0.263;9.108;-2.871;-0.002;0.002;0.002;
20190926_022300;0.266;9.081;-2.854;-0.000;0.001;0.002;
20190926_022300;0.306;9.122;-2.933;-0.001;0.002;0.002;
20190926_022300;0.302;9.112;-2.863;-0.002;0.002;0.003;
20190926_022300;0.271;9.055;-2.840;-0.003;0.003;0.003;
20190926_022300;0.302;9.108;-2.885;-0.001;0.002;0.002;
20190926_022300;0.242;9.110;-2.959;-0.000;0.001;0.002;
20190926_022301;0.266;9.048;-2.899;0.001;0.001;0.003;
20190926_022301;0.256;9.112;-2.895;-0.003;0.001;0.003;
20190926_022301;0.232;9.062;-2.875;-0.001;0.002;0.003;
20190926_022301;0.239;9.093;-2.899;-0.001;0.002;0.003;
20190926_022301;0.254;9.045;-2.959;-0.001;0.002;0.003;
20190926_022301;0.275;9.076;-2.942;-0.000;0.001;0.002;
20190926_022301;0.285;9.086;-2.942;0.001;-0.000;0.003;
20190926_022301;0.290;9.062;-2.919;-0.001;0.001;0.001;
20190926_022301;0.266;9.096;-2.919;-0.002;0.001;-0.000;
20190926_022301;0.263;9.117;-2.959;-0.001;0.002;-0.000;
20190926_022302;0.259;9.081;-2.974;-0.001;0.001;0.001;
20190926_022302;0.278;9.093;-2.959;-0.001;0.001;0.001;
20190926_022302;0.251;9.088;-2.935;-0.002;0.001;0.001;
20190926_022302;0.299;9.129;-2.976;-0.002;-0.000;0.002;
20190926_022302;0.333;9.163;-2.942;-0.001;-0.000;0.001;
20190926_022302;0.328;9.115;-3.000;-0.003;0.002;0.002;
20190926_022302;0.321;9.117;-3.002;-0.003;0.002;0.001;
20190926_022302;0.294;9.194;-3.014;-0.001;0.002;0.002;
20190926_022302;0.294;9.117;-3.033;-0.000;0.002;0.002;
20190926_022303;0.263;9.158;-2.995;0.001;0.002;0.002;
20190926_022303;0.294;9.172;-2.962;-0.000;0.001;0.001;
20190926_022303;0.302;9.227;-3.007;-0.002;0.002;0.002;
20190926_022303;0.271;9.177;-2.959;-0.003;0.002;0.002;
20190926_022303;0.280;9.158;-2.921;-0.002;0.001;0.002;
20190926_022303;0.280;9.153;-2.935;0.001;-0.001;-0.001;
20190926_022303;0.283;9.163;-2.952;-0.001;0.001;0.000;
20190926_022303;0.256;9.189;-2.969;0.001;0.001;0.000;
20190926_022303;0.261;9.187;-2.974;0.001;-0.001;0.000;
20190926_022303;0.294;9.218;-2.969;0.002;-0.002;0.000;
20190926_022304;0.261;9.191;-2.986;0.000;-0.001;0.000;
20190926_022304;0.249;9.151;-2.945;0.000;-0.002;0.000;
20190926_022304;0.275;9.184;-2.962;0.003;-0.002;0.000;
20190926_022304;0.232;9.182;-2.954;0.004;-0.001;0.000;
20190926_022304;0.256;9.172;-2.988;0.002;0.001;0.000;
20190926_022304;0.261;9.184;-2.959;0.002;-0.001;0.000;
20190926_022304;0.263;9.160;-2.959;0.001;-0.002;0.000;
20190926_022304;0.244;9.175;-2.959;0.001;-0.001;0.000;
20190926_022304;0.268;9.165;-2.933;-0.001;0.001;0.000;
20190926_022305;0.256;9.146;-2.988;0.000;-0.001;-0.001;
20190926_022305;0.278;9.141;-2.976;0.000;-0.001;-0.001;
20190926_022305;0.273;9.222;-2.978;0.000;-0.002;-0.001;
20190926_022305;0.261;9.160;-2.933;0.000;-0.002;-0.002;
20190926_022305;0.287;9.194;-2.966;0.001;-0.002;-0.002;
20190926_022305;0.299;9.263;-2.974;0.003;-0.002;-0.002;
20190926_022305;0.297;9.143;-2.904;-0.001;-0.002;-0.001;
20190926_022305;0.261;9.172;-2.938;0.001;-0.003;-0.003;
20190926_022305;0.287;9.227;-2.978;0.001;-0.003;-0.003;
20190926_022305;0.304;9.304;-3.029;0.007;-0.003;-0.004;
20190926_022306;0.309;9.167;-2.930;-0.003;-0.002;-0.002;
20190926_022306;0.292;9.251;-2.976;0.000;-0.002;-0.003;
20190926_022306;0.278;9.208;-3.005;0.001;-0.003;-0.004;
20190926_022306;0.297;9.232;-3.048;0.004;-0.003;-0.003;
20190926_022306;0.261;9.160;-3.036;0.000;-0.002;-0.003;
20190926_022306;0.259;9.275;-2.947;0.003;-0.001;-0.004;
20190926_022306;0.256;9.163;-2.909;-0.004;-0.001;-0.002;
20190926_022306;0.235;9.222;-2.966;0.002;-0.002;-0.002;
20190926_022306;0.261;9.187;-3.000;-0.001;-0.001;-0.002;
20190926_022307;0.302;9.143;-2.911;-0.003;-0.001;-0.001;
20190926_022307;0.275;9.146;-3.002;-0.001;0.001;-0.001;
20190926_022307;0.254;9.203;-2.978;0.003;-0.001;0.000;
20190926_022307;0.273;9.179;-2.981;0.009;0.001;-0.002;
20190926_022307;0.309;9.203;-2.959;-0.002;0.001;-0.001;
20190926_022307;0.294;9.170;-2.969;-0.001;-0.001;-0.001;
20190926_022307;0.302;9.170;-2.947;-0.001;-0.001;-0.003;
20190926_022307;0.261;9.199;-3.045;0.002;-0.002;-0.002;
20190926_022307;0.275;9.175;-2.988;0.002;-0.001;-0.003;
20190926_022307;0.321;9.220;-3.021;0.003;-0.001;-0.003;
20190926_022308;0.306;9.184;-2.964;0.003;-0.001;-0.002;
20190926_022308;0.314;9.203;-2.988;0.000;0.001;-0.003;
20190926_022308;0.244;9.232;-3.002;0.001;-0.001;-0.002;
20190926_022308;0.290;9.218;-3.012;-0.001;0.001;-0.001;
20190926_022308;0.239;9.175;-3.002;0.001;-0.001;-0.002;
20190926_022308;0.266;9.215;-2.978;0.000;0.002;-0.001;
20190926_022308;0.273;9.220;-3.017;-0.001;0.002;-0.000;
20190926_022308;0.242;9.187;-3.024;-0.001;0.002;-0.000;
20190926_022308;0.311;9.232;-3.021;-0.003;0.002;0.001;
20190926_022309;0.340;9.213;-3.010;-0.001;0.002;-0.000;
20190926_022309;0.321;9.218;-3.010;0.000;0.001;-0.001;
20190926_022309;0.254;9.167;-3.000;-0.003;0.002;-0.000;
20190926_022309;0.275;9.179;-2.986;-0.001;-0.001;-0.000;
20190926_022309;0.266;9.222;-3.000;-0.001;0.002;-0.000;
20190926_022309;0.275;9.239;-2.998;-0.001;0.001;-0.000;
20190926_022309;0.294;9.206;-3.002;0.001;0.002;-0.000;
20190926_022309;0.316;9.210;-3.014;-0.001;-0.001;0.001;
20190926_022309;0.290;9.177;-2.976;0.002;-0.001;-0.000;
20190926_022309;0.278;9.225;-2.976;0.000;0.002;-0.000;
20190926_022310;0.259;9.258;-3.055;-0.002;0.003;-0.000;
20190926_022310;0.273;9.220;-2.976;0.001;0.002;0.001;
20190926_022310;0.261;9.203;-2.995;-0.001;0.001;-0.000;
20190926_022310;0.294;9.227;-3.045;0.000;0.002;-0.000;
20190926_022310;0.268;9.239;-3.026;0.000;0.002;0.001;
20190926_022310;0.232;9.242;-3.000;-0.001;0.003;-0.000;
20190926_022310;0.302;9.201;-2.993;-0.001;0.003;0.001;
20190926_022310;0.247;9.206;-3.057;0.000;0.001;-0.000;
20190926_022310;0.290;9.213;-3.021;-0.001;0.002;0.002;
20190926_022311;0.259;9.213;-3.021;-0.001;-0.001;-0.000;
20190926_022311;0.242;9.203;-2.978;-0.001;0.001;0.001;
20190926_022311;0.263;9.208;-3.021;-0.005;0.002;0.001;
20190926_022311;0.287;9.213;-3.014;-0.001;-0.001;0.001;
20190926_022311;0.261;9.215;-3.000;0.000;0.001;-0.000;
20190926_022311;0.244;9.153;-2.993;-0.001;0.001;-0.000;
20190926_022311;0.273;9.208;-2.974;0.000;0.001;-0.000;
20190926_022311;0.287;9.191;-3.010;-0.001;0.002;-0.000;
20190926_022311;0.194;9.206;-3.117;-0.015;0.002;0.001;
20190926_022312;0.230;9.232;-3.007;0.002;0.002;0.003;
20190926_022312;0.290;9.275;-3.019;-0.008;0.001;-0.000;
20190926_022312;0.239;9.177;-2.959;-0.005;0.003;0.002;
20190926_022312;0.237;9.194;-2.998;-0.003;0.001;-0.000;
20190926_022312;0.254;9.146;-2.983;-0.001;0.001;-0.000;
20190926_022312;0.263;9.220;-3.057;0.002;0.001;0.002;
20190926_022312;0.254;9.210;-3.029;0.001;-0.001;0.001;
20190926_022312;0.254;9.218;-3.079;0.002;-0.001;-0.000;
20190926_022312;0.239;9.258;-3.072;0.001;-0.001;-0.001;
20190926_022312;0.208;9.215;-3.029;0.000;0.001;-0.000;
20190926_022313;0.227;9.213;-3.041;0.001;-0.002;-0.001;
20190926_022313;0.223;9.222;-2.966;0.000;-0.001;-0.001;
20190926_022313;0.232;9.239;-2.947;0.002;-0.001;-0.000;
20190926_022313;0.297;9.244;-2.995;-0.002;-0.001;0.001;
20190926_022313;0.247;9.215;-3.024;-0.003;0.001;-0.000;
20190926_022313;0.275;9.203;-2.964;0.000;-0.001;-0.001;
20190926_022313;0.242;9.158;-2.986;0.002;0.001;-0.000;
20190926_022313;0.261;9.244;-3.043;0.003;-0.002;-0.000;
20190926_022313;0.256;9.201;-3.014;0.002;0.000;-0.000;
20190926_022314;0.285;9.273;-3.065;0.003;0.000;-0.000;
20190926_022314;0.254;9.201;-3.041;0.001;0.000;-0.000;
20190926_022314;0.285;9.175;-3.050;-0.001;0.000;-0.002;
20190926_022314;0.247;9.208;-3.012;0.001;-0.001;-0.002;
20190926_022314;0.244;9.184;-2.964;0.002;0.000;-0.000;
20190926_022314;0.239;9.201;-3.000;-0.001;-0.002;-0.002;
20190926_022314;0.297;9.220;-3.026;-0.000;-0.001;-0.000;
20190926_022314;0.247;9.167;-3.041;0.001;-0.001;-0.002;
20190926_022314;0.268;9.203;-3.038;0.001;-0.001;-0.003;
20190926_022315;0.266;9.246;-3.019;0.001;-0.002;-0.000;
20190926_022315;0.225;9.187;-3.007;0.003;-0.001;-0.000;
20190926_022315;0.232;9.165;-3.050;-0.000;0.000;0.001;
20190926_022315;0.275;9.175;-2.995;-0.000;-0.002;-0.000;
20190926_022315;0.244;9.165;-2.966;-0.000;0.000;-0.000;
20190926_022315;0.266;9.208;-2.966;-0.002;0.000;-0.000;
20190926_022315;0.206;9.151;-2.998;-0.000;0.000;-0.002;
20190926_022315;0.242;9.179;-2.978;-0.000;0.001;0.001;
20190926_022315;0.266;9.206;-3.017;-0.000;0.000;-0.000;
20190926_022315;0.256;9.208;-3.036;-0.004;0.000;0.001;
20190926_022316;0.263;9.215;-3.053;-0.002;0.000;0.001;
20190926_022316;0.261;9.167;-3.000;-0.000;0.000;-0.000;
20190926_022316;0.268;9.184;-2.983;0.001;0.000;-0.000;
20190926_022316;0.239;9.225;-2.995;0.001;0.001;-0.000;
20190926_022316;0.225;9.129;-3.029;0.001;0.000;0.001;
20190926_022316;0.239;9.155;-3.021;0.001;-0.001;-0.000;
20190926_022316;0.290;9.218;-3.065;0.004;-0.001;-0.000;
20190926_022316;0.285;9.196;-3.012;0.002;-0.001;-0.002;
20190926_022316;0.251;9.184;-3.038;-0.002;0.000;-0.000;
20190926_022316;0.227;9.165;-3.053;0.001;0.000;-0.000;
20190926_022317;0.223;9.208;-3.038;-0.001;-0.001;0.001;
20190926_022317;0.249;9.208;-3.043;0.001;0.001;0.001;
20190926_022317;0.239;9.218;-2.998;0.001;-0.001;0.002;
20190926_022317;0.204;9.199;-2.983;-0.000;0.000;-0.000;
20190926_022317;0.218;9.218;-2.990;-0.004;-0.001;0.001;
20190926_022317;0.208;9.184;-3.021;0.002;-0.002;-0.000;
20190926_022317;0.225;9.222;-3.033;-0.000;0.000;0.001;
20190926_022317;0.292;9.177;-2.995;-0.001;0.000;0.001;
20190926_022317;0.251;9.203;-3.029;-0.000;0.000;0.001;
20190926_022318;0.218;9.208;-3.012;0.001;0.000;0.002;
20190926_022318;0.225;9.215;-3.019;-0.001;0.000;-0.000;
20190926_022318;0.225;9.199;-2.986;-0.000;0.000;0.001;
20190926_022318;0.227;9.203;-2.981;-0.001;-0.001;-0.000;
20190926_022318;0.256;9.270;-3.067;0.004;-0.002;-0.000;
20190926_022318;0.259;9.189;-3.010;0.001;-0.001;0.001;
20190926_022318;0.254;9.177;-3.029;0.002;-0.002;-0.000;
20190926_022318;0.278;9.201;-3.079;0.000;-0.001;-0.000;
20190926_022318;0.290;9.222;-3.036;0.000;-0.002;-0.000;
20190926_022319;0.254;9.230;-3.043;-0.003;0.000;-0.000;
20190926_022319;0.227;9.194;-3.029;-0.006;0.000;-0.000;
20190926_022319;0.235;9.194;-3.021;-0.004;-0.001;-0.000;
20190926_022319;0.211;9.266;-3.069;0.000;-0.002;-0.001;
20190926_022319;0.259;9.175;-3.026;0.001;0.000;-0.000;
20190926_022319;0.261;9.196;-3.021;-0.001;0.000;-0.001;
20190926_022319;0.251;9.182;-3.053;-0.002;-0.001;-0.000;
20190926_022319;0.271;9.244;-3.055;0.001;-0.001;-0.001;
20190926_022319;0.261;9.234;-3.110;0.005;0.000;-0.003;
20190926_022319;0.263;9.187;-3.089;-0.001;-0.001;-0.000;
20190926_022320;0.227;9.206;-3.072;0.001;-0.001;-0.000;
20190926_022320;0.280;9.218;-3.048;0.000;0.001;0.001;
20190926_022320;0.213;9.187;-3.045;-0.001;-0.001;-0.000;
20190926_022320;0.227;9.158;-3.014;-0.001;-0.001;-0.001;
20190926_022320;0.280;9.189;-3.043;0.002;-0.002;-0.000;
20190926_022320;0.249;9.225;-3.045;-0.002;-0.001;-0.003;
20190926_022320;0.273;9.170;-3.026;-0.002;-0.002;-0.000;
20190926_022320;0.278;9.146;-3.036;-0.004;0.000;-0.001;
20190926_022320;0.254;9.167;-3.029;-0.003;-0.001;-0.000;
20190926_022320;0.259;9.170;-3.033;-0.003;0.000;-0.000;
20190926_022321;0.227;9.177;-3.067;-0.003;-0.001;-0.001;
20190926_022321;0.227;9.158;-3.089;-0.003;-0.001;-0.000;
20190926_022321;0.220;9.148;-3.093;0.005;0.000;-0.000;
20190926_022321;0.266;9.210;-3.029;0.002;-0.001;-0.000;
20190926_022321;0.261;9.151;-3.033;0.001;-0.002;-0.001;
20190926_022321;0.280;9.141;-3.026;0.000;-0.001;-0.000;
20190926_022321;0.263;9.184;-3.041;0.002;-0.002;-0.000;
20190926_022321;0.247;9.153;-3.038;0.004;0.000;-0.001;
20190926_022321;0.266;9.155;-3.014;-0.001;0.000;-0.000;
20190926_022322;0.283;9.146;-3.024;-0.001;-0.001;-0.000;
20190926_022322;0.263;9.105;-3.017;0.000;-0.002;-0.000;
20190926_022322;0.263;9.191;-3.081;0.000;-0.001;-0.001;
20190926_022322;0.239;9.146;-3.072;0.002;0.000;0.001;
20190926_022322;0.251;9.182;-3.077;0.002;-0.001;-0.000;
20190926_022322;0.232;9.170;-3.103;0.000;0.000;-0.001;
20190926_022322;0.278;9.215;-3.031;-0.001;-0.002;-0.001;
20190926_022322;0.292;9.165;-3.053;-0.001;-0.001;-0.000;
20190926_022322;0.232;9.165;-3.074;0.000;-0.001;-0.003;
20190926_022323;0.273;9.158;-3.024;-0.001;-0.001;-0.000;
20190926_022323;0.263;9.210;-3.036;0.001;-0.001;-0.000;
20190926_022323;0.247;9.203;-3.115;0.001;-0.001;-0.003;
20190926_022323;0.249;9.175;-3.093;-0.002;-0.001;-0.001;
20190926_022323;0.306;9.222;-3.100;0.002;0.000;-0.001;
20190926_022323;0.254;9.208;-3.065;-0.002;-0.001;-0.001;
20190926_022323;0.239;9.232;-3.050;0.001;-0.002;0.001;
20190926_022323;0.242;9.234;-3.127;0.003;0.001;-0.001;
20190926_022323;0.242;9.227;-3.108;0.003;-0.001;-0.001;
20190926_022323;0.266;9.203;-3.053;0.002;0.001;0.000;
20190926_022324;0.235;9.232;-3.084;0.002;0.001;0.000;
20190926_022324;0.225;9.244;-3.108;0.002;-0.000;-0.001;
20190926_022324;0.254;9.232;-3.074;0.004;-0.000;-0.001;
20190926_022324;0.321;9.278;-3.108;0.002;-0.000;0.002;
20190926_022324;0.254;9.280;-3.112;0.003;0.001;0.002;
20190926_022324;0.266;9.280;-3.122;0.003;0.002;0.002;
20190926_022324;0.215;9.249;-3.103;0.002;-0.001;0.002;
20190926_022324;0.256;9.328;-3.139;0.004;0.001;0.002;
20190926_022324;0.278;9.282;-3.086;0.004;-0.001;-0.001;
20190926_022325;0.273;9.290;-3.105;0.001;-0.000;0.000;
20190926_022325;0.294;9.285;-3.108;0.001;-0.000;0.000;
20190926_022325;0.256;9.306;-3.120;0.001;-0.000;0.000;
20190926_022325;0.237;9.313;-3.108;-0.000;0.001;0.002;
20190926_022325;0.242;9.294;-3.120;0.002;-0.000;0.000;
20190926_022325;0.261;9.278;-3.105;0.004;-0.001;0.000;
20190926_022325;0.244;9.280;-3.112;-0.002;0.001;0.002;
20190926_022325;0.230;9.301;-3.074;0.003;-0.000;0.000;
20190926_022325;0.242;9.299;-3.086;-0.000;-0.001;-0.001;
20190926_022325;0.271;9.290;-3.077;0.003;-0.001;0.000;
20190926_022326;0.266;9.294;-3.141;0.004;-0.001;-0.001;
20190926_022326;0.283;9.290;-3.160;-0.002;-0.000;0.000;
20190926_022326;0.206;9.285;-3.048;0.002;-0.000;0.000;
20190926_022326;0.182;9.268;-3.072;0.001;0.001;0.000;
20190926_022326;0.244;9.280;-3.132;-0.000;-0.001;0.000;
20190926_022326;0.254;9.278;-3.079;-0.003;0.001;0.002;
20190926_022326;0.232;9.246;-3.062;0.002;-0.000;0.000;
20190926_022326;0.254;9.311;-3.139;-0.000;-0.000;0.000;
20190926_022326;0.235;9.328;-3.156;0.002;-0.000;0.002;
20190926_022327;0.220;9.278;-3.115;-0.002;-0.000;0.003;
20190926_022327;0.251;9.318;-3.156;0.001;-0.000;0.000;
20190926_022327;0.239;9.301;-3.151;0.001;-0.000;0.002;
20190926_022327;0.259;9.230;-3.124;-0.000;0.001;0.002;
20190926_022327;0.194;9.246;-3.038;-0.004;0.001;0.000;
20190926_022327;0.251;9.256;-3.103;-0.002;-0.000;0.002;
20190926_022327;0.263;9.239;-3.105;0.001;-0.000;0.000;
20190926_022327;0.275;9.244;-3.100;-0.000;-0.000;0.000;
20190926_022327;0.271;9.213;-3.122;0.001;-0.000;0.000;
20190926_022327;0.326;9.222;-3.110;-0.000;-0.000;0.002;
20190926_022328;0.283;9.270;-3.096;-0.000;-0.000;0.000;
20190926_022328;0.287;9.218;-3.084;0.001;-0.001;0.000;
20190926_022328;0.330;9.203;-3.115;-0.000;-0.000;0.000;
20190926_022328;0.290;9.153;-3.077;-0.002;0.001;0.000;
20190926_022328;0.261;9.234;-3.077;-0.000;-0.001;0.000;
20190926_022328;0.275;9.225;-3.134;0.001;-0.001;0.002;
20190926_022328;0.280;9.175;-3.122;-0.002;-0.000;0.002;
20190926_022328;0.266;9.172;-3.093;-0.002;-0.000;0.002;
20190926_022328;0.285;9.189;-3.089;-0.002;-0.001;0.001;
20190926_022329;0.259;9.148;-3.072;-0.002;0.000;0.001;
20190926_022329;0.247;9.151;-3.110;-0.002;0.001;0.001;
20190926_022329;0.235;9.134;-3.110;-0.003;0.001;0.001;
20190926_022329;0.249;9.158;-3.105;0.000;0.001;-0.000;
20190926_022329;0.266;9.151;-3.043;-0.001;0.000;0.002;
20190926_022329;0.285;9.112;-3.043;-0.003;0.000;0.002;
20190926_022329;0.242;9.072;-3.005;-0.001;0.001;-0.000;
20190926_022329;0.292;9.084;-3.014;-0.004;0.000;0.001;
20190926_022329;0.275;9.100;-3.077;-0.001;0.001;-0.000;
20190926_022329;0.287;9.110;-3.062;-0.001;0.001;0.001;
20190926_022330;0.290;9.069;-3.041;-0.001;0.001;0.001;
20190926_022330;0.256;9.088;-3.010;-0.002;0.001;0.001;
20190926_022330;0.259;9.079;-3.033;-0.002;0.000;-0.000;
20190926_022330;0.249;9.088;-3.043;0.000;0.000;-0.000;
20190926_022330;0.280;9.057;-3.017;0.001;0.001;-0.000;
20190926_022330;0.271;9.084;-3.048;0.000;0.001;-0.002;
20190926_022330;0.280;9.120;-3.043;-0.002;0.000;-0.000;
20190926_022330;0.259;9.064;-3.038;-0.001;0.001;-0.000;
20190926_022330;0.242;9.057;-3.038;-0.002;0.001;0.001;
20190926_022331;0.244;9.048;-2.966;-0.001;0.000;-0.000;
20190926_022331;0.232;9.069;-2.952;-0.001;0.001;0.001;
20190926_022331;0.259;9.057;-2.942;-0.004;0.001;-0.000;
20190926_022331;0.225;9.088;-2.995;-0.003;0.002;-0.000;
20190926_022331;0.239;9.048;-3.055;0.001;0.000;0.002;
20190926_022331;0.261;9.041;-3.045;0.002;0.000;0.001;
20190926_022331;0.247;9.084;-3.079;0.004;0.000;-0.000;
20190926_022331;0.251;9.108;-3.093;-0.001;0.001;0.001;
20190926_022331;0.230;9.105;-3.103;-0.002;0.001;0.001;
20190926_022331;0.247;9.105;-3.096;-0.001;0.001;-0.000;
20190926_022332;0.268;9.115;-3.091;-0.001;0.001;-0.000;
20190926_022332;0.261;9.129;-3.096;-0.001;0.000;-0.000;
20190926_022332;0.268;9.151;-3.041;-0.002;-0.001;-0.000;
20190926_022332;0.261;9.088;-3.089;0.000;0.000;-0.001;
20190926_022332;0.280;9.110;-3.033;0.000;0.000;-0.000;
20190926_022332;0.261;9.151;-3.062;0.003;-0.002;-0.001;
20190926_022332;0.249;9.160;-3.105;0.000;-0.001;-0.001;
20190926_022332;0.235;9.139;-3.033;-0.003;-0.001;-0.002;
20190926_022332;0.323;9.143;-3.065;-0.004;-0.001;-0.002;
20190926_022333;0.280;9.131;-3.110;-0.001;-0.001;-0.002;
20190926_022333;0.299;9.203;-3.160;0.002;-0.002;-0.002;
20190926_022333;0.290;9.184;-3.093;0.005;-0.002;-0.002;
20190926_022333;0.294;9.187;-3.103;0.000;-0.002;-0.002;
20190926_022333;0.326;9.184;-3.127;0.002;-0.002;-0.002;
20190926_022333;0.330;9.208;-3.153;0.002;-0.001;-0.002;
20190926_022333;0.314;9.189;-3.103;-0.002;-0.001;-0.001;
20190926_022333;0.330;9.184;-3.089;-0.001;-0.001;-0.000;
20190926_022333;0.299;9.206;-3.053;-0.002;-0.001;-0.002;
20190926_022333;0.364;9.218;-3.084;-0.001;-0.001;0.000;
20190926_022334;0.342;9.232;-3.110;0.004;0.000;0.000;
20190926_022334;0.362;9.249;-3.156;0.004;0.000;-0.002;
20190926_022334;0.314;9.203;-3.112;0.002;0.000;-0.001;
20190926_022334;0.333;9.218;-3.110;0.001;-0.001;-0.001;
20190926_022334;0.333;9.242;-3.105;0.002;-0.001;-0.003;
20190926_022334;0.345;9.261;-3.103;-0.001;-0.001;-0.001;
20190926_022334;0.306;9.206;-3.100;0.001;0.000;-0.002;
20190926_022334;0.330;9.266;-3.115;0.002;0.000;0.000;
20190926_022334;0.340;9.285;-3.177;0.004;0.000;-0.002;
20190926_022335;0.338;9.237;-3.225;0.003;0.000;0.000;
20190926_022335;0.287;9.155;-3.163;-0.001;0.001;0.002;
20190926_022335;0.311;9.263;-3.168;0.002;0.000;0.000;
20190926_022335;0.302;9.266;-3.144;0.002;0.000;0.001;
20190926_022335;0.297;9.258;-3.148;-0.002;0.001;0.001;
20190926_022335;0.321;9.266;-3.110;0.003;0.001;0.000;
20190926_022335;0.316;9.263;-3.098;0.002;0.000;0.001;
20190926_022335;0.326;9.234;-3.220;-0.003;0.000;0.000;
20190926_022335;0.342;9.316;-3.218;0.001;0.001;0.000;
20190926_022335;0.354;9.285;-3.180;0.001;0.000;0.000;
20190926_022336;0.326;9.268;-3.105;-0.003;0.001;0.000;
20190926_022336;0.321;9.230;-3.072;-0.001;-0.001;-0.002;
20190926_022336;0.373;9.273;-3.120;0.003;0.000;-0.001;
20190926_022336;0.330;9.304;-3.175;0.005;0.000;-0.002;
20190926_022336;0.359;9.270;-3.211;0.003;0.000;-0.001;
20190926_022336;0.309;9.309;-3.211;0.004;0.001;-0.001;
20190926_022336;0.354;9.299;-3.175;0.003;0.000;-0.003;
20190926_022336;0.338;9.270;-3.211;0.003;0.002;-0.001;
20190926_022336;0.302;9.321;-3.189;0.001;0.002;-0.001;
20190926_022337;0.330;9.333;-3.220;0.003;0.002;-0.001;
20190926_022337;0.302;9.290;-3.148;-0.003;0.003;0.000;
20190926_022337;0.299;9.335;-3.151;-0.003;0.003;0.002;
20190926_022337;0.304;9.321;-3.187;0.003;0.002;0.002;
20190926_022337;0.275;9.313;-3.232;0.004;0.003;0.003;
20190926_022337;0.266;9.292;-3.168;-0.004;0.005;0.005;
20190926_022337;0.283;9.273;-3.203;-0.003;0.004;0.005;
20190926_022337;0.261;9.294;-3.213;-0.003;0.005;0.007;
20190926_022337;0.266;9.282;-3.168;0.001;0.006;0.008;
20190926_022338;0.280;9.383;-3.148;0.003;0.005;0.008;
20190926_022338;0.263;9.304;-3.189;0.004;0.004;0.005;
20190926_022338;0.201;9.263;-3.168;0.002;0.005;0.008;
20190926_022338;0.239;9.256;-3.153;0.001;0.005;0.007;
20190926_022338;0.223;9.285;-3.089;0.001;0.004;0.005;
20190926_022338;0.232;9.237;-3.036;0.001;0.004;0.007;
20190926_022338;0.215;9.237;-3.110;-0.003;0.004;0.004;
20190926_022338;0.199;9.244;-3.129;0.001;0.003;0.004;
20190926_022338;0.227;9.242;-3.120;0.001;0.003;0.005;
20190926_022338;0.218;9.237;-3.146;0.000;0.001;0.003;
20190926_022339;0.184;9.170;-3.139;-0.003;0.000;0.002;
20190926_022339;0.213;9.210;-3.079;-0.001;0.000;0.003;
20190926_022339;0.204;9.220;-3.139;0.002;0.000;0.003;
20190926_022339;0.194;9.172;-3.165;0.003;-0.001;0.002;
20190926_022339;0.192;9.263;-3.184;0.008;-0.003;-0.001;
20190926_022339;0.223;9.225;-3.132;-0.002;-0.001;0.003;
20190926_022339;0.206;9.179;-3.077;-0.004;0.000;0.003;
20190926_022339;0.225;9.151;-3.084;-0.002;0.000;0.004;
20190926_022339;0.251;9.134;-3.124;-0.004;-0.001;0.004;
20190926_022340;0.239;9.163;-3.108;-0.001;-0.001;0.002;
20190926_022340;0.263;9.227;-3.129;-0.001;-0.001;0.003;
20190926_022340;0.237;9.208;-3.134;-0.002;-0.003;0.002;
20190926_022340;0.237;9.184;-3.151;0.000;-0.003;0.001;
20190926_022340;0.244;9.225;-3.103;0.000;-0.001;0.003;
20190926_022340;0.232;9.215;-3.148;0.000;-0.002;0.001;
20190926_022340;0.249;9.194;-3.199;0.000;-0.003;0.001;
20190926_022340;0.271;9.218;-3.124;0.002;-0.002;-0.000;
20190926_022340;0.247;9.199;-3.141;0.002;-0.003;0.001;
20190926_022341;0.263;9.175;-3.124;-0.002;-0.003;-0.001;
20190926_022341;0.259;9.131;-3.158;-0.002;-0.003;-0.000;
20190926_022341;0.242;9.237;-3.156;-0.002;-0.003;-0.002;
20190926_022341;0.299;9.134;-3.163;-0.002;-0.003;-0.001;
20190926_022341;0.263;9.208;-3.139;0.000;-0.004;-0.001;
20190926_022341;0.311;9.215;-3.165;0.000;-0.003;-0.002;
20190926_022341;0.318;9.194;-3.144;-0.002;-0.003;-0.000;
20190926_022341;0.278;9.165;-3.163;-0.004;-0.002;-0.002;
20190926_022341;0.290;9.191;-3.139;0.002;-0.002;-0.002;
20190926_022341;0.302;9.292;-3.168;0.007;-0.003;-0.001;
20190926_022342;0.321;9.285;-3.146;0.003;-0.002;-0.000;
20190926_022342;0.297;9.179;-3.136;0.002;-0.002;-0.000;
20190926_022342;0.280;9.165;-3.187;-0.001;-0.003;-0.002;
20190926_022342;0.294;9.177;-3.175;-0.001;-0.003;-0.002;
20190926_022342;0.273;9.215;-3.172;-0.003;0.000;-0.002;
20190926_022342;0.268;9.213;-3.160;-0.003;-0.002;-0.002;
20190926_022342;0.302;9.218;-3.110;-0.002;-0.003;-0.004;
20190926_022342;0.290;9.189;-3.091;-0.003;0.000;-0.002;
20190926_022342;0.256;9.151;-3.120;0.003;-0.002;-0.003;
20190926_022343;0.278;9.167;-3.132;0.000;-0.002;-0.003;
20190926_022343;0.256;9.184;-3.168;0.004;-0.002;-0.002;
20190926_022343;0.287;9.189;-3.180;-0.003;-0.001;-0.002;
20190926_022343;0.297;9.206;-3.141;-0.003;-0.001;-0.002;
20190926_022343;0.278;9.146;-3.129;-0.005;-0.002;-0.001;
20190926_022343;0.256;9.172;-3.134;-0.007;0.000;-0.001;
20190926_022343;0.290;9.158;-3.112;-0.006;0.000;-0.002;
20190926_022343;0.261;9.242;-3.177;-0.008;0.001;-0.001;
20190926_022343;0.285;9.146;-3.196;-0.007;-0.002;-0.001;
20190926_022343;0.290;9.237;-3.208;-0.004;-0.001;-0.002;
20190926_022344;0.268;9.141;-3.160;0.000;0.002;-0.001;
20190926_022344;0.247;9.131;-3.144;0.000;0.000;-0.002;
20190926_022344;0.237;9.134;-3.141;0.000;0.001;-0.002;
20190926_022344;0.273;9.187;-3.189;0.000;0.001;-0.002;
20190926_022344;0.261;9.175;-3.148;0.002;0.001;-0.002;
20190926_022344;0.256;9.225;-3.203;0.003;0.000;-0.001;
20190926_022344;0.263;9.143;-3.120;-0.004;0.001;-0.001;
20190926_022344;0.254;9.179;-3.153;0.000;0.001;0.001;
20190926_022344;0.249;9.160;-3.191;-0.002;0.001;-0.001;
20190926_022345;0.239;9.139;-3.089;-0.002;0.001;-0.001;
20190926_022345;0.242;9.163;-3.136;-0.001;0.001;-0.001;
20190926_022345;0.254;9.246;-3.170;0.003;0.001;-0.001;
20190926_022345;0.275;9.170;-3.172;-0.001;0.001;0.001;
20190926_022345;0.249;9.160;-3.194;0.003;0.001;-0.002;
20190926_022345;0.230;9.199;-3.203;0.000;0.001;-0.001;
20190926_022345;0.230;9.203;-3.158;-0.001;0.001;0.001;
20190926_022345;0.251;9.208;-3.122;0.000;0.000;0.001;
20190926_022345;0.218;9.203;-3.089;-0.003;0.001;-0.001;
20190926_022345;0.244;9.203;-3.129;-0.002;0.001;-0.001;
20190926_022346;0.249;9.222;-3.148;-0.002;0.001;-0.001;
20190926_022346;0.239;9.232;-3.124;-0.002;0.001;-0.001;
20190926_022346;0.268;9.251;-3.110;-0.002;0.000;-0.001;
20190926_022346;0.242;9.239;-3.172;-0.001;0.001;-0.002;
20190926_022346;0.263;9.208;-3.146;0.000;-0.001;-0.002;
20190926_022346;0.256;9.251;-3.189;0.002;0.000;0.001;
20190926_022346;0.249;9.242;-3.182;0.003;-0.001;-0.002;
20190926_022346;0.297;9.246;-3.215;0.002;-0.001;-0.002;
20190926_022346;0.297;9.273;-3.230;0.006;-0.002;-0.003;
20190926_022347;0.244;9.201;-3.194;0.002;-0.001;-0.003;
20190926_022347;0.290;9.239;-3.151;0.000;-0.001;-0.001;
20190926_022347;0.280;9.191;-3.077;-0.003;0.000;-0.002;
20190926_022347;0.299;9.292;-3.136;0.000;-0.001;-0.005;
20190926_022347;0.268;9.244;-3.227;-0.001;-0.001;-0.003;
20190926_022347;0.244;9.182;-3.175;0.000;-0.001;-0.002;
20190926_022347;0.280;9.237;-3.158;-0.001;0.000;-0.002;
20190926_022347;0.271;9.191;-3.127;-0.001;0.001;-0.001;
20190926_022347;0.254;9.167;-3.055;-0.005;-0.001;0.002;
20190926_022347;0.256;9.153;-3.211;-0.005;0.002;0.001;
20190926_022348;0.266;9.182;-3.177;0.000;0.000;-0.003;
20190926_022348;0.299;9.210;-3.213;-0.001;0.001;-0.002;
20190926_022348;0.256;9.225;-3.189;-0.001;0.000;-0.002;
20190926_022348;0.227;9.203;-3.194;0.000;0.000;-0.002;
20190926_022348;0.261;9.220;-3.215;-0.001;0.000;0.001;
20190926_022348;0.261;9.203;-3.251;-0.001;0.000;-0.003;
20190926_022348;0.278;9.199;-3.213;0.004;0.000;-0.002;
20190926_022348;0.261;9.191;-3.213;0.002;0.001;-0.001;
20190926_022348;0.256;9.208;-3.220;0.003;0.001;-0.001;
20190926_022349;0.261;9.187;-3.165;0.000;0.000;-0.001;
20190926_022349;0.254;9.215;-3.177;0.000;-0.000;0.000;
20190926_022349;0.280;9.196;-3.208;-0.001;0.001;-0.001;
20190926_022349;0.223;9.139;-3.136;0.001;-0.001;0.002;
20190926_022349;0.273;9.208;-3.211;0.000;0.001;0.002;
20190926_022349;0.278;9.179;-3.187;0.001;0.001;0.002;
20190926_022349;0.290;9.191;-3.187;0.002;-0.000;0.000;
20190926_022349;0.271;9.155;-3.184;0.000;0.001;0.000;
20190926_022349;0.268;9.175;-3.170;0.000;-0.000;-0.001;
20190926_022349;0.247;9.201;-3.180;0.001;0.001;0.000;
20190926_022350;0.302;9.136;-3.191;-0.005;-0.000;0.000;
20190926_022350;0.271;9.187;-3.175;0.008;-0.002;-0.001;
20190926_022350;0.251;9.167;-3.187;0.002;-0.001;0.000;
20190926_022350;0.263;9.184;-3.156;0.003;-0.000;0.000;
20190926_022350;0.292;9.194;-3.156;0.003;-0.001;-0.001;
20190926_022350;0.266;9.136;-3.163;-0.001;0.002;0.000;
20190926_022350;0.266;9.160;-3.189;0.000;0.001;0.000;
20190926_022350;0.261;9.194;-3.194;-0.001;0.002;0.000;
20190926_022350;0.278;9.179;-3.175;-0.002;-0.000;0.000;
20190926_022351;0.275;9.122;-3.151;0.000;0.002;-0.001;
20190926_022351;0.290;9.170;-3.146;0.001;-0.000;0.000;
20190926_022351;0.285;9.175;-3.180;0.001;-0.000;0.000;
20190926_022351;0.239;9.158;-3.151;0.002;0.002;0.000;
20190926_022351;0.220;9.148;-3.163;0.001;0.001;0.000;
20190926_022351;0.275;9.175;-3.144;0.001;0.001;0.000;
20190926_022351;0.249;9.177;-3.136;-0.002;0.002;0.000;
20190926_022351;0.292;9.167;-3.172;-0.003;0.002;0.000;
20190926_022351;0.266;9.187;-3.160;0.000;0.001;0.003;
20190926_022351;0.278;9.194;-3.196;0.002;0.001;0.003;
20190926_022352;0.268;9.163;-3.127;0.000;0.002;0.003;
20190926_022352;0.261;9.206;-3.165;-0.001;0.001;0.003;
20190926_022352;0.266;9.179;-3.139;-0.001;0.001;0.003;
20190926_022352;0.261;9.179;-3.160;0.002;-0.001;0.002;
20190926_022352;0.256;9.191;-3.213;0.001;0.001;0.002;
20190926_022352;0.227;9.199;-3.203;-0.001;-0.000;0.002;
20190926_022352;0.285;9.189;-3.151;-0.001;0.003;0.003;
20190926_022352;0.271;9.182;-3.254;0.000;-0.000;0.002;
20190926_022352;0.261;9.218;-3.177;0.001;0.001;0.003;
20190926_022353;0.259;9.187;-3.175;-0.001;0.001;0.002;
20190926_022353;0.266;9.213;-3.206;0.003;-0.000;0.000;
20190926_022353;0.268;9.249;-3.194;0.003;-0.000;0.002;
20190926_022353;0.302;9.189;-3.215;0.001;-0.000;0.002;
20190926_022353;0.266;9.201;-3.201;0.001;-0.000;-0.001;
20190926_022353;0.297;9.239;-3.215;0.000;-0.000;0.000;
20190926_022353;0.259;9.227;-3.208;-0.001;-0.000;0.000;
20190926_022353;0.306;9.215;-3.213;0.001;-0.000;0.000;
20190926_022353;0.275;9.175;-3.215;0.000;0.001;0.000;
20190926_022353;0.259;9.184;-3.184;-0.001;0.001;-0.002;
20190926_022354;0.285;9.258;-3.196;-0.001;0.001;-0.002;
20190926_022354;0.266;9.191;-3.203;0.000;-0.003;-0.005;
20190926_022354;0.283;9.131;-3.168;0.001;-0.001;-0.007;
20190926_022354;0.268;9.165;-3.141;-0.001;-0.002;-0.007;
20190926_022354;0.285;9.242;-3.206;-0.002;-0.002;-0.008;
20190926_022354;0.249;9.191;-3.199;0.000;-0.004;-0.009;
20190926_022354;0.266;9.170;-3.211;0.002;-0.004;-0.011;
20190926_022354;0.275;9.143;-3.165;-0.001;-0.004;-0.013;
20190926_022354;0.261;9.160;-3.206;0.001;-0.005;-0.014;
20190926_022355;0.249;9.153;-3.213;0.001;-0.005;-0.015;
20190926_022355;0.261;9.165;-3.199;-0.002;-0.006;-0.017;
20190926_022355;0.256;9.103;-3.170;0.001;-0.006;-0.018;
20190926_022355;0.251;9.124;-3.112;0.006;-0.008;-0.019;
20190926_022355;0.261;9.172;-3.237;0.000;-0.008;-0.019;
20190926_022355;0.266;9.165;-3.124;-0.003;-0.008;-0.020;
20190926_022355;0.261;9.153;-3.247;-0.001;-0.008;-0.022;
20190926_022355;0.275;9.151;-3.203;0.002;-0.009;-0.023;
20190926_022355;0.230;9.191;-3.187;-0.001;-0.008;-0.023;
20190926_022356;0.223;9.170;-3.187;0.000;-0.011;-0.024;
20190926_022356;0.201;9.199;-3.201;-0.001;-0.011;-0.025;
20190926_022356;0.227;9.098;-3.132;-0.008;-0.010;-0.026;
20190926_022356;0.211;9.103;-3.146;-0.005;-0.011;-0.026;
20190926_022356;0.244;9.136;-3.156;-0.005;-0.010;-0.026;
20190926_022356;0.235;9.160;-3.165;-0.003;-0.011;-0.027;
20190926_022356;0.256;9.167;-3.141;-0.002;-0.012;-0.028;
20190926_022356;0.213;9.134;-3.196;-0.001;-0.014;-0.029;
20190926_022356;0.192;9.084;-3.196;-0.001;-0.014;-0.029;
20190926_022356;0.204;9.225;-3.177;-0.003;-0.014;-0.031;
20190926_022357;0.196;9.122;-3.141;-0.004;-0.014;-0.030;
20190926_022357;0.184;9.117;-3.168;-0.002;-0.015;-0.034;
20190926_022357;0.225;9.105;-3.184;-0.002;-0.017;-0.034;
20190926_022357;0.211;9.170;-3.218;-0.001;-0.015;-0.035;
20190926_022357;0.177;9.141;-3.199;0.006;-0.018;-0.036;
20190926_022357;0.182;9.182;-3.230;0.002;-0.018;-0.036;
20190926_022357;0.206;9.131;-3.215;0.000;-0.018;-0.037;
20190926_022357;0.165;9.115;-3.208;0.000;-0.017;-0.037;
20190926_022357;0.184;9.170;-3.170;0.000;-0.017;-0.036;
20190926_022358;0.199;9.208;-3.184;0.001;-0.019;-0.037;
20190926_022358;0.194;9.239;-3.170;0.002;-0.019;-0.037;
20190926_022358;0.201;9.215;-3.153;0.001;-0.020;-0.038;
20190926_022358;0.189;9.208;-3.201;0.002;-0.022;-0.040;
20190926_022358;0.201;9.208;-3.206;0.004;-0.021;-0.039;
20190926_022358;0.163;9.184;-3.160;0.000;-0.021;-0.039;
20190926_022358;0.170;9.196;-3.230;0.004;-0.022;-0.041;
20190926_022358;0.206;9.203;-3.208;0.002;-0.021;-0.040;
20190926_022358;0.204;9.215;-3.227;0.002;-0.023;-0.040;
20190926_022359;0.213;9.316;-3.275;0.002;-0.022;-0.040;
20190926_022359;0.175;9.313;-3.261;0.001;-0.024;-0.041;
20190926_022359;0.189;9.318;-3.237;0.006;-0.023;-0.041;
20190926_022359;0.182;9.330;-3.309;0.003;-0.024;-0.042;
20190926_022359;0.192;9.306;-3.299;0.006;-0.025;-0.042;
20190926_022359;0.184;9.333;-3.292;0.006;-0.023;-0.042;
20190926_022359;0.180;9.306;-3.278;0.004;-0.026;-0.042;
20190926_022359;0.184;9.330;-3.282;0.004;-0.026;-0.043;
20190926_022359;0.187;9.340;-3.282;-0.001;-0.024;-0.041;
20190926_022359;0.187;9.333;-3.268;0.000;-0.025;-0.043;
20190926_022400;0.194;9.395;-3.290;0.004;-0.026;-0.042;
20190926_022400;0.194;9.402;-3.349;0.008;-0.027;-0.043;
20190926_022400;0.201;9.409;-3.354;0.007;-0.027;-0.042;
20190926_022400;0.158;9.400;-3.249;0.008;-0.029;-0.044;
20190926_022400;0.168;9.426;-3.270;0.000;-0.027;-0.042;
20190926_022400;0.182;9.562;-3.309;0.004;-0.029;-0.042;
20190926_022400;0.165;9.527;-3.373;0.002;-0.031;-0.044;
20190926_022400;0.148;9.601;-3.457;0.014;-0.032;-0.044;
20190926_022400;0.158;9.534;-3.359;0.013;-0.032;-0.044;
20190926_022401;0.132;9.618;-3.393;0.003;-0.031;-0.042;
20190926_022401;0.151;9.720;-3.354;0.004;-0.032;-0.042;
20190926_022401;0.136;9.534;-3.314;-0.002;-0.028;-0.040;
20190926_022401;0.148;9.606;-3.361;0.003;-0.032;-0.043;
20190926_022401;0.184;9.651;-3.383;0.006;-0.033;-0.042;
20190926_022401;0.160;9.579;-3.405;0.010;-0.032;-0.041;
20190926_022401;0.144;9.601;-3.440;0.010;-0.033;-0.042;
20190926_022401;0.139;9.728;-3.452;0.013;-0.035;-0.043;
20190926_022401;0.156;9.699;-3.419;0.010;-0.035;-0.041;
20190926_022401;0.136;9.692;-3.445;0.009;-0.034;-0.041;
20190926_022402;0.163;9.713;-3.402;0.008;-0.034;-0.041;
20190926_022402;0.124;9.694;-3.462;0.011;-0.035;-0.040;
20190926_022402;0.151;9.759;-3.510;0.010;-0.035;-0.040;
20190926_022402;0.160;9.720;-3.445;0.008;-0.035;-0.039;
20190926_022402;0.151;9.783;-3.481;0.012;-0.035;-0.039;
20190926_022402;0.156;9.780;-3.460;0.011;-0.036;-0.038;
20190926_022402;0.189;9.797;-3.450;0.008;-0.035;-0.036;
20190926_022402;0.165;9.845;-3.491;0.010;-0.035;-0.036;
20190926_022402;0.165;9.823;-3.476;0.009;-0.035;-0.035;
20190926_022403;0.184;9.886;-3.491;0.009;-0.035;-0.034;
20190926_022403;0.182;9.890;-3.508;0.011;-0.036;-0.034;
20190926_022403;0.151;9.864;-3.517;0.011;-0.035;-0.034;
20190926_022403;0.158;9.919;-3.510;0.006;-0.005;0.007;
20190926_022403;0.194;9.957;-3.510;0.005;-0.004;0.008;
20190926_022403;0.201;9.929;-3.517;0.000;-0.005;0.009;
20190926_022403;0.196;9.967;-3.546;0.002;-0.004;0.010;
20190926_022403;0.211;9.972;-3.512;0.002;-0.004;0.011;
20190926_022403;0.165;9.981;-3.606;0.003;-0.004;0.011;
20190926_022403;0.153;10.008;-3.627;0.006;-0.004;0.011;
20190926_022404;0.177;10.048;-3.644;0.007;-0.004;0.012;
20190926_022404;0.199;10.051;-3.598;0.007;-0.005;0.013;
20190926_022404;0.180;10.089;-3.625;0.007;-0.004;0.013;
20190926_022404;0.213;10.080;-3.603;0.006;-0.005;0.015;
20190926_022404;0.223;10.106;-3.613;0.007;-0.004;0.014;
20190926_022404;0.220;10.106;-3.634;0.006;-0.005;0.015;
20190926_022404;0.225;10.118;-3.625;0.007;-0.004;0.017;
20190926_022404;0.211;10.137;-3.613;0.006;-0.005;0.017;
20190926_022404;0.206;10.175;-3.644;0.008;-0.004;0.018;
20190926_022404;0.204;10.202;-3.673;0.007;-0.004;0.020;
20190926_022405;0.196;10.173;-3.680;0.008;-0.003;0.021;
20190926_022405;0.225;10.211;-3.709;0.007;-0.004;0.021;
20190926_022405;0.215;10.250;-3.747;0.007;-0.004;0.022;
20190926_022405;0.244;10.250;-3.737;0.008;-0.003;0.022;
20190926_022405;0.235;10.228;-3.694;0.009;-0.003;0.023;
20190926_022405;0.206;10.245;-3.670;0.007;-0.003;0.023;
20190926_022405;0.204;10.285;-3.677;0.008;-0.004;0.024;
20190926_022405;0.211;10.293;-3.711;0.009;-0.004;0.024;
20190926_022405;0.230;10.266;-3.742;0.008;-0.003;0.026;
20190926_022406;0.215;10.333;-3.752;0.010;-0.003;0.027;
20190926_022406;0.211;10.300;-3.747;0.008;-0.003;0.027;
20190926_022406;0.220;10.295;-3.668;0.008;-0.003;0.027;
20190926_022406;0.199;10.305;-3.694;0.008;-0.002;0.028;
20190926_022406;0.213;10.341;-3.685;0.009;-0.003;0.029;
20190926_022406;0.208;10.379;-3.792;0.009;-0.003;0.030;
20190926_022406;0.201;10.374;-3.761;0.009;-0.002;0.030;
20190926_022406;0.213;10.376;-3.788;0.009;-0.001;0.032;
20190926_022406;0.220;10.405;-3.780;0.011;-0.003;0.032;
20190926_022407;0.254;10.372;-3.733;0.009;-0.003;0.033;
20190926_022407;0.230;10.386;-3.709;0.010;-0.002;0.033;
20190926_022407;0.227;10.429;-3.759;0.010;-0.002;0.034;
20190926_022407;0.237;10.420;-3.778;0.010;-0.002;0.034;
20190926_022407;0.232;10.412;-3.790;0.010;-0.001;0.037;
20190926_022407;0.194;10.427;-3.802;0.008;-0.001;0.038;
20190926_022407;0.235;10.444;-3.764;0.010;-0.002;0.037;
20190926_022407;0.218;10.472;-3.771;0.010;-0.001;0.038;
20190926_022407;0.249;10.489;-3.843;0.010;-0.002;0.038;
20190926_022407;0.242;10.482;-3.867;0.011;-0.001;0.038;
20190926_022408;0.237;10.487;-3.867;0.009;0.000;0.038;
20190926_022408;0.247;10.494;-3.881;0.011;0.000;0.039;
20190926_022408;0.220;10.511;-3.845;0.012;0.000;0.038;
20190926_022408;0.263;10.549;-3.826;0.013;-0.001;0.040;
20190926_022408;0.242;10.542;-3.843;0.012;0.002;0.041;
20190926_022408;0.259;10.520;-3.826;0.009;-0.001;0.042;
20190926_022408;0.242;10.568;-3.881;0.012;0.000;0.042;
20190926_022408;0.232;10.582;-3.855;0.011;0.000;0.041;
20190926_022408;0.239;10.563;-3.850;0.010;0.002;0.044;
20190926_022409;0.287;10.582;-3.867;0.011;0.000;0.044;
20190926_022409;0.237;10.613;-3.912;0.012;0.002;0.044;
20190926_022409;0.223;10.609;-3.874;0.011;0.000;0.043;
20190926_022409;0.247;10.645;-3.898;0.013;0.002;0.044;
20190926_022409;0.242;10.647;-3.888;0.011;0.002;0.043;
20190926_022409;0.251;10.637;-3.888;0.010;0.002;0.045;
20190926_022409;0.251;10.640;-3.871;0.011;0.002;0.046;
20190926_022409;0.259;10.652;-3.893;0.011;0.002;0.045;
20190926_022409;0.285;10.613;-3.915;0.012;0.002;0.046;
20190926_022410;0.249;10.635;-3.938;0.012;0.002;0.046;
20190926_022410;0.266;10.642;-3.934;0.010;0.003;0.047;
20190926_022410;0.225;10.633;-3.907;0.010;0.003;0.046;
20190926_022410;0.235;10.669;-3.926;0.010;0.003;0.048;
20190926_022410;0.278;10.666;-3.898;0.012;0.004;0.048;
20190926_022410;0.259;10.611;-3.883;0.013;0.003;0.048;
20190926_022410;0.249;10.616;-3.883;0.009;0.003;0.049;
20190926_022410;0.259;10.647;-3.910;0.010;0.003;0.049;
20190926_022410;0.263;10.676;-3.941;0.011;0.003;0.049;
20190926_022410;0.266;10.678;-3.891;0.010;0.003;0.048;
20190926_022411;0.259;10.671;-3.895;0.010;0.002;0.049;
20190926_022411;0.280;10.633;-3.926;0.009;0.002;0.050;
20190926_022411;0.254;10.640;-3.934;0.009;0.002;0.050;
20190926_022411;0.242;10.647;-3.917;0.009;0.004;0.050;
20190926_022411;0.263;10.606;-3.869;0.010;0.004;0.051;
20190926_022411;0.254;10.604;-3.869;0.009;0.003;0.051;
20190926_022411;0.225;10.611;-3.867;0.008;0.005;0.053;
20190926_022411;0.247;10.568;-3.862;0.010;0.004;0.053;
20190926_022411;0.251;10.566;-3.924;0.011;0.003;0.051;
20190926_022412;0.266;10.525;-3.934;0.010;0.004;0.054;
20190926_022412;0.239;10.513;-3.907;0.009;0.003;0.053;
20190926_022412;0.256;10.518;-3.864;0.009;0.005;0.053;
20190926_022412;0.271;10.542;-3.847;0.013;0.003;0.053;
20190926_022412;0.271;10.520;-3.833;0.009;0.005;0.054;
20190926_022412;0.242;10.441;-3.816;0.009;0.005;0.055;
20190926_022412;0.278;10.470;-3.824;0.010;0.005;0.054;
20190926_022412;0.294;10.427;-3.857;0.013;0.005;0.051;
20190926_022412;0.263;10.453;-3.893;0.016;0.004;0.053;
20190926_022412;0.283;10.429;-3.905;0.014;0.003;0.055;
20190926_022413;0.287;10.424;-3.888;0.007;0.005;0.054;
20190926_022413;0.263;10.400;-3.833;0.008;0.005;0.055;
20190926_022413;0.287;10.415;-3.850;0.010;0.005;0.055;
20190926_022413;0.294;10.470;-3.912;0.004;0.001;0.003;
20190926_022413;0.287;10.453;-3.874;0.001;0.001;0.003;
20190926_022413;0.254;10.446;-3.869;-0.003;0.004;0.004;
20190926_022413;0.283;10.455;-3.797;-0.002;0.004;0.005;
20190926_022413;0.285;10.439;-3.838;-0.001;0.002;0.005;
20190926_022413;0.254;10.429;-3.855;-0.000;0.002;0.004;
20190926_022414;0.223;10.444;-3.886;0.001;0.002;0.004;
20190926_022414;0.256;10.496;-3.903;0.003;0.001;0.004;
20190926_022414;0.239;10.403;-3.900;0.001;0.002;0.005;
20190926_022414;0.254;10.417;-3.888;0.005;0.004;0.005;
20190926_022414;0.259;10.420;-3.883;0.002;0.004;0.005;
20190926_022414;0.230;10.439;-3.900;0.001;0.004;0.005;
20190926_022414;0.273;10.470;-3.847;0.002;0.004;0.004;
20190926_022414;0.249;10.415;-3.881;0.002;0.001;0.006;
20190926_022414;0.285;10.415;-3.903;-0.001;0.002;0.006;
20190926_022414;0.242;10.393;-3.893;-0.002;0.004;0.005;
20190926_022415;0.266;10.396;-3.879;-0.002;0.004;0.007;
20190926_022415;0.237;10.427;-3.883;-0.002;0.005;0.007;
20190926_022415;0.266;10.384;-3.840;-0.004;0.002;0.006;
20190926_022415;0.275;10.350;-3.876;0.001;0.001;0.006;
20190926_022415;0.287;10.307;-3.816;-0.002;0.004;0.006;
20190926_022415;0.278;10.333;-3.886;0.001;0.004;0.006;
20190926_022415;0.266;10.367;-3.857;-0.000;0.004;0.006;
20190926_022415;0.251;10.353;-3.838;0.001;0.002;0.006;
20190926_022415;0.256;10.276;-3.840;-0.001;0.002;0.006;
20190926_022416;0.242;10.302;-3.809;-0.001;0.002;0.006;
20190926_022416;0.235;10.214;-3.816;-0.005;0.004;0.007;
20190926_022416;0.242;10.293;-3.797;-0.004;0.004;0.007;
20190926_022416;0.259;10.293;-3.788;-0.003;0.004;0.007;
20190926_022416;0.278;10.228;-3.824;-0.001;0.004;0.007;
20190926_022416;0.271;10.240;-3.795;-0.003;0.005;0.007;
20190926_022416;0.254;10.211;-3.778;-0.006;0.005;0.007;
20190926_022416;0.247;10.209;-3.780;-0.004;0.004;0.007;
20190926_022416;0.256;10.163;-3.757;-0.003;0.004;0.007;
20190926_022417;0.254;10.218;-3.795;-0.003;0.004;0.007;
20190926_022417;0.278;10.235;-3.761;-0.002;0.004;0.006;
20190926_022417;0.247;10.211;-3.785;-0.002;0.004;0.007;
20190926_022417;0.271;10.197;-3.790;-0.001;0.005;0.007;
20190926_022417;0.306;10.180;-3.785;-0.001;0.004;0.006;
20190926_022417;0.283;10.137;-3.776;-0.003;0.006;0.006;
20190926_022417;0.263;10.125;-3.761;-0.002;0.004;0.005;
20190926_022417;0.254;10.125;-3.740;-0.002;0.004;0.006;
20190926_022417;0.278;10.082;-3.757;-0.004;0.004;0.006;
20190926_022417;0.247;10.089;-3.764;-0.005;0.005;0.005;
20190926_022418;0.268;10.113;-3.766;-0.005;0.005;0.006;
20190926_022418;0.278;10.108;-3.771;-0.001;0.004;0.005;
20190926_022418;0.287;10.075;-3.778;-0.003;0.004;0.005;
20190926_022418;0.278;10.096;-3.764;-0.005;0.004;0.006;
20190926_022418;0.259;10.048;-3.773;0.001;-0.001;-0.000;
20190926_022418;0.254;10.068;-3.766;0.001;0.001;-0.001;
20190926_022418;0.261;10.034;-3.742;-0.002;0.000;-0.000;
20190926_022418;0.261;10.041;-3.764;-0.003;0.002;-0.001;
20190926_022418;0.309;10.044;-3.742;-0.003;0.001;-0.000;
20190926_022419;0.280;10.027;-3.740;-0.002;0.002;-0.000;
20190926_022419;0.273;10.022;-3.759;0.001;0.000;-0.000;
20190926_022419;0.268;10.001;-3.768;0.001;0.000;-0.000;
20190926_022419;0.290;10.034;-3.687;-0.001;0.001;-0.000;
20190926_022419;0.266;10.013;-3.740;-0.002;0.001;-0.000;
20190926_022419;0.268;10.005;-3.735;-0.003;0.001;0.001;
20190926_022419;0.259;9.967;-3.735;-0.003;0.001;-0.000;
20190926_022419;0.247;9.962;-3.728;-0.003;0.001;-0.000;
20190926_022419;0.230;9.965;-3.723;-0.004;0.001;-0.000;
20190926_022420;0.230;9.946;-3.692;-0.006;0.002;-0.000;
20190926_022420;0.247;9.955;-3.718;-0.006;0.001;-0.000;
20190926_022420;0.247;9.955;-3.711;-0.002;0.001;0.001;
20190926_022420;0.297;9.931;-3.680;-0.003;0.001;-0.000;
20190926_022420;0.292;9.948;-3.711;0.001;0.000;-0.001;
20190926_022420;0.273;9.941;-3.682;-0.001;0.001;-0.001;
20190926_022420;0.256;9.950;-3.709;-0.002;0.001;-0.001;
20190926_022420;0.273;9.953;-3.694;-0.002;0.001;-0.000;
20190926_022420;0.256;9.965;-3.749;-0.002;0.002;-0.001;
20190926_022420;0.287;9.950;-3.718;-0.002;0.000;-0.002;
20190926_022421;0.254;9.938;-3.680;-0.002;0.000;-0.001;
20190926_022421;0.225;9.905;-3.716;-0.005;0.002;-0.000;
20190926_022421;0.247;9.946;-3.694;-0.003;0.000;-0.002;
20190926_022421;0.249;9.962;-3.716;-0.002;0.001;-0.002;
20190926_022421;0.249;9.931;-3.677;-0.003;0.000;-0.001;
20190926_022421;0.225;9.914;-3.689;-0.003;0.002;-0.001;
20190926_022421;0.239;9.943;-3.723;-0.001;0.001;-0.001;
20190926_022421;0.247;9.934;-3.694;-0.002;0.001;-0.001;
20190926_022421;0.278;9.931;-3.721;-0.004;0.002;-0.000;
20190926_022422;0.266;9.912;-3.730;-0.002;0.002;-0.001;
20190926_022422;0.239;9.929;-3.701;-0.003;0.001;-0.002;
20190926_022422;0.227;9.898;-3.733;-0.002;0.001;-0.001;
20190926_022422;0.232;9.902;-3.699;-0.002;0.002;-0.002;
20190926_022422;0.239;9.888;-3.697;-0.004;0.003;-0.001;
20190926_022422;0.256;9.871;-3.742;-0.002;0.002;-0.000;
20190926_022422;0.249;9.950;-3.704;0.001;0.001;-0.000;
20190926_022422;0.225;9.864;-3.701;-0.003;0.002;-0.000;
20190926_022422;0.247;9.857;-3.680;-0.004;0.002;0.001;
20190926_022423;0.239;9.823;-3.687;-0.004;0.004;0.001;
20190926_022423;0.244;9.905;-3.673;-0.003;0.002;0.002;
20190926_022423;0.247;9.876;-3.704;-0.002;0.003;0.003;
20190926_022423;0.244;9.876;-3.704;-0.002;0.003;0.005;
20190926_022423;0.254;9.864;-3.716;0.003;0.002;0.006;
20190926_022423;0.235;9.838;-3.687;0.001;0.004;0.007;
20190926_022423;0.261;9.838;-3.711;-0.002;0.004;0.009;
20190926_022423;0.251;9.883;-3.716;-0.001;0.004;0.009;
20190926_022423;0.242;9.819;-3.735;-0.003;0.005;0.010;
20190926_022423;0.263;9.838;-3.704;-0.000;0.004;0.009;
20190926_022424;0.256;9.869;-3.687;0.001;0.003;0.011;
20190926_022424;0.271;9.838;-3.680;0.001;0.005;0.011;
20190926_022424;0.256;9.922;-3.685;-0.000;0.005;0.010;
20190926_022424;0.273;9.929;-3.685;-0.001;0.005;0.011;
20190926_022424;0.280;9.864;-3.694;-0.000;0.004;0.010;
20190926_022424;0.292;9.835;-3.680;-0.001;0.005;0.008;
20190926_022424;0.321;9.852;-3.689;-0.002;0.004;0.009;
20190926_022424;0.297;9.907;-3.697;-0.003;0.005;0.008;
20190926_022424;0.311;9.948;-3.697;-0.000;0.005;0.008;
20190926_022425;0.292;9.946;-3.701;-0.001;0.005;0.006;
20190926_022425;0.297;9.895;-3.704;-0.000;0.004;0.005;
20190926_022425;0.318;9.926;-3.713;-0.000;0.003;0.003;
20190926_022425;0.323;9.898;-3.677;-0.001;0.005;0.002;
20190926_022425;0.299;9.869;-3.694;-0.002;0.003;0.001;
20190926_022425;0.297;9.869;-3.706;-0.002;0.004;-0.000;
20190926_022425;0.297;9.847;-3.709;-0.003;0.004;-0.000;
20190926_022425;0.302;9.857;-3.728;-0.002;0.004;-0.002;
20190926_022425;0.306;9.871;-3.716;-0.002;0.004;-0.003;
20190926_022425;0.297;9.874;-3.701;-0.002;0.004;-0.003;
20190926_022426;0.292;9.883;-3.701;-0.001;0.004;-0.003;
20190926_022426;0.268;9.886;-3.725;-0.002;0.003;-0.005;
20190926_022426;0.278;9.871;-3.713;-0.001;0.003;-0.004;
20190926_022426;0.261;9.907;-3.747;0.001;0.004;-0.004;
20190926_022426;0.266;9.910;-3.778;-0.000;0.003;-0.005;
20190926_022426;0.244;9.855;-3.716;-0.001;0.004;-0.005;
20190926_022426;0.249;9.855;-3.699;-0.004;0.003;-0.005;
20190926_022426;0.251;9.878;-3.718;-0.002;0.004;-0.005;
20190926_022426;0.249;9.869;-3.718;-0.001;0.002;-0.006;
20190926_022427;0.266;9.864;-3.706;0.001;0.002;-0.007;
20190926_022427;0.239;9.869;-3.742;-0.000;0.003;-0.008;
20190926_022427;0.239;9.831;-3.706;-0.000;0.002;-0.006;
20190926_022427;0.254;9.835;-3.716;-0.002;0.003;-0.006;
20190926_022427;0.235;9.787;-3.740;-0.003;0.002;-0.007;
20190926_022427;0.218;9.811;-3.725;-0.003;0.000;-0.008;
20190926_022427;0.220;9.797;-3.723;-0.003;0.003;-0.008;
20190926_022427;0.218;9.799;-3.685;-0.004;0.000;-0.008;
20190926_022427;0.199;9.814;-3.689;-0.002;0.002;-0.008;
20190926_022427;0.206;9.821;-3.668;-0.004;0.002;-0.009;
20190926_022428;0.223;9.795;-3.661;-0.002;0.002;-0.009;
20190926_022428;0.204;9.804;-3.687;-0.001;0.000;-0.009;
20190926_022428;0.227;9.761;-3.654;-0.002;0.000;-0.009;
20190926_022428;0.206;9.764;-3.670;-0.001;0.002;-0.009;
20190926_022428;0.189;9.704;-3.656;-0.004;0.000;-0.008;
20190926_022428;0.225;9.732;-3.670;-0.000;-0.002;-0.005;
20190926_022428;0.206;9.744;-3.666;-0.001;-0.005;-0.005;
20190926_022428;0.208;9.713;-3.646;-0.001;-0.003;-0.004;
20190926_022428;0.184;9.759;-3.663;0.001;-0.003;-0.006;
20190926_022429;0.215;9.754;-3.649;-0.001;-0.003;-0.005;
20190926_022429;0.211;9.737;-3.673;-0.001;-0.004;-0.005;
20190926_022429;0.263;9.790;-3.706;-0.001;-0.005;-0.005;
20190926_022429;0.239;9.694;-3.620;-0.002;-0.003;-0.005;
20190926_022429;0.239;9.677;-3.625;-0.001;-0.004;-0.006;
20190926_022429;0.232;9.780;-3.656;-0.002;-0.003;-0.006;
20190926_022429;0.244;9.725;-3.663;-0.001;-0.004;-0.005;
20190926_022429;0.237;9.747;-3.680;-0.002;-0.005;-0.006;
20190926_022429;0.225;9.764;-3.682;-0.001;-0.004;-0.005;
20190926_022429;0.223;9.747;-3.639;-0.002;-0.004;-0.006;
20190926_022430;0.227;9.744;-3.670;-0.000;-0.004;-0.005;
20190926_022430;0.230;9.754;-3.654;0.002;-0.004;-0.008;
20190926_022430;0.235;9.747;-3.680;-0.000;-0.005;-0.008;
20190926_022430;0.244;9.795;-3.689;0.001;-0.005;-0.007;
20190926_022430;0.244;9.699;-3.677;-0.000;-0.005;-0.007;
20190926_022430;0.247;9.718;-3.687;-0.000;-0.005;-0.007;
20190926_022430;0.225;9.713;-3.666;0.001;-0.006;-0.008;
20190926_022430;0.235;9.728;-3.663;-0.001;-0.006;-0.008;
20190926_022430;0.223;9.716;-3.692;-0.001;-0.004;-0.008;
20190926_022431;0.244;9.720;-3.689;-0.000;-0.005;-0.008;
20190926_022431;0.225;9.708;-3.706;-0.002;-0.004;-0.007;
20190926_022431;0.230;9.677;-3.685;-0.001;-0.005;-0.007;
20190926_022431;0.215;9.699;-3.728;-0.000;-0.004;-0.007;
20190926_022431;0.259;9.718;-3.689;-0.000;-0.004;-0.007;
20190926_022431;0.251;9.685;-3.682;-0.001;-0.004;-0.007;
20190926_022431;0.261;9.680;-3.689;0.002;-0.005;-0.008;
20190926_022431;0.220;9.706;-3.654;0.001;-0.004;-0.007;
20190926_022431;0.254;9.759;-3.713;0.002;-0.004;-0.008;
20190926_022431;0.247;9.720;-3.721;0.003;-0.005;-0.007;
20190926_022432;0.256;9.740;-3.704;0.002;-0.005;-0.008;
20190926_022432;0.263;9.728;-3.709;-0.002;-0.004;-0.006;
20190926_022432;0.275;9.732;-3.713;-0.000;-0.004;-0.006;
20190926_022432;0.249;9.752;-3.687;0.001;-0.003;-0.007;
20190926_022432;0.247;9.747;-3.670;-0.001;-0.004;-0.006;
20190926_022432;0.251;9.723;-3.687;-0.000;-0.002;-0.005;
20190926_022432;0.266;9.773;-3.709;-0.001;-0.003;-0.005;
20190926_022432;0.268;9.790;-3.723;0.002;-0.004;-0.006;
20190926_022432;0.268;9.778;-3.721;-0.001;-0.003;-0.006;
20190926_022432;0.256;9.783;-3.718;-0.000;-0.003;-0.006;
20190926_022433;0.254;9.792;-3.706;0.001;-0.004;-0.006;
20190926_022433;0.266;9.807;-3.716;0.003;-0.005;-0.005;
20190926_022433;0.237;9.847;-3.773;0.004;-0.005;-0.006;
20190926_022433;0.239;9.857;-3.776;0.001;-0.004;-0.006;
20190926_022433;0.225;9.814;-3.764;0.001;-0.004;-0.007;
20190926_022433;0.208;9.840;-3.761;-0.002;0.001;0.002;
20190926_022433;0.225;9.799;-3.723;0.001;0.000;0.003;
20190926_022433;0.223;9.831;-3.778;0.002;0.001;0.003;
20190926_022433;0.249;9.888;-3.740;0.003;0.000;0.003;
20190926_022434;0.237;9.816;-3.737;0.001;0.000;0.003;
20190926_022434;0.225;9.857;-3.752;0.001;0.000;0.003;
20190926_022434;0.239;9.862;-3.740;-0.002;0.001;0.003;
20190926_022434;0.220;9.816;-3.706;-0.001;0.000;0.004;
20190926_022434;0.244;9.855;-3.737;0.002;-0.001;0.003;
20190926_022434;0.211;9.752;-3.776;0.002;0.000;0.003;
20190926_022434;0.227;9.785;-3.773;0.003;-0.001;0.002;
20190926_022434;0.237;9.833;-3.795;0.002;-0.001;0.002;
20190926_022434;0.215;9.819;-3.733;-0.000;-0.001;0.002;
20190926_022435;0.232;9.749;-3.759;-0.001;-0.001;0.002;
20190926_022435;0.244;9.773;-3.771;0.001;-0.001;0.003;
20190926_022435;0.230;9.776;-3.754;0.006;-0.001;0.002;
20190926_022435;0.227;9.795;-3.740;0.004;-0.001;0.001;
20190926_022435;0.182;9.737;-3.768;-0.000;0.000;0.003;
20190926_022435;0.218;9.761;-3.804;0.001;-0.001;0.003;
20190926_022435;0.230;9.752;-3.788;0.003;-0.002;0.003;
20190926_022435;0.218;9.708;-3.850;0.006;-0.001;0.003;
20190926_022435;0.201;9.821;-3.812;0.011;-0.002;0.003;
20190926_022435;0.201;9.783;-3.809;0.006;-0.001;0.005;
20190926_022436;0.215;9.742;-3.826;0.004;0.000;0.005;
20190926_022436;0.223;9.785;-3.833;0.006;0.001;0.007;
20190926_022436;0.225;9.816;-3.800;0.003;0.000;0.008;
20190926_022436;0.227;9.711;-3.747;-0.002;0.001;0.010;
20190926_022436;0.232;9.756;-3.783;-0.001;0.004;0.010;
20190926_022436;0.227;9.838;-3.800;-0.000;0.002;0.013;
20190926_022436;0.230;9.790;-3.800;0.004;0.001;0.014;
20190926_022436;0.230;9.847;-3.809;-0.000;0.004;0.015;
20190926_022436;0.232;9.840;-3.773;0.005;0.004;0.017;
20190926_022436;0.275;9.852;-3.802;0.003;0.005;0.017;
20190926_022437;0.263;9.878;-3.831;0.004;0.004;0.018;
20190926_022437;0.275;9.845;-3.802;0.002;0.005;0.020;
20190926_022437;0.239;9.862;-3.819;0.002;0.006;0.020;
20190926_022437;0.275;9.869;-3.831;0.004;0.005;0.020;
20190926_022437;0.251;9.814;-3.807;0.002;0.006;0.022;
20190926_022437;0.290;9.831;-3.819;0.002;0.008;0.024;
20190926_022437;0.275;9.855;-3.816;0.002;0.007;0.024;
20190926_022437;0.261;9.907;-3.802;0.002;0.008;0.025;
20190926_022437;0.273;9.905;-3.836;0.003;0.008;0.026;
20190926_022438;0.273;9.934;-3.838;0.003;0.007;0.025;
20190926_022438;0.299;9.859;-3.847;0.002;0.008;0.025;
20190926_022438;0.321;9.893;-3.838;0.002;0.010;0.028;
20190926_022438;0.316;9.857;-3.812;0.003;0.010;0.028;
20190926_022438;0.338;9.886;-3.819;0.003;0.010;0.030;
20190926_022438;0.311;9.905;-3.795;0.001;0.011;0.029;
20190926_022438;0.299;9.819;-3.850;-0.000;0.012;0.032;
20190926_022438;0.335;9.878;-3.845;0.001;0.012;0.032;
20190926_022438;0.311;9.886;-3.802;-0.000;0.013;0.033;
20190926_022439;0.347;9.874;-3.826;0.001;0.013;0.034;
20190926_022439;0.357;9.902;-3.847;0.002;0.013;0.036;
20190926_022439;0.350;9.890;-3.831;-0.001;0.016;0.036;
20190926_022439;0.362;9.881;-3.876;0.001;0.015;0.037;
20190926_022439;0.350;9.859;-3.828;0.001;0.015;0.037;
20190926_022439;0.326;9.871;-3.826;0.002;0.015;0.037;
20190926_022439;0.354;9.881;-3.816;-0.000;0.016;0.038;
20190926_022439;0.354;9.845;-3.852;-0.002;0.018;0.038;
20190926_022439;0.335;9.792;-3.862;-0.001;0.019;0.040;
20190926_022439;0.306;9.799;-3.792;-0.001;0.018;0.039;
20190926_022440;0.328;9.835;-3.819;-0.002;0.019;0.040;
20190926_022440;0.345;9.792;-3.828;-0.000;0.021;0.040;
20190926_022440;0.354;9.787;-3.780;-0.001;0.023;0.042;
20190926_022440;0.328;9.766;-3.766;-0.002;0.023;0.041;
20190926_022440;0.328;9.756;-3.747;-0.001;0.023;0.042;
20190926_022440;0.342;9.706;-3.761;-0.002;0.024;0.043;
20190926_022440;0.316;9.725;-3.761;-0.002;0.024;0.045;
20190926_022440;0.338;9.692;-3.776;-0.002;0.024;0.045;
20190926_022440;0.326;9.658;-3.733;-0.004;0.026;0.045;
20190926_022441;0.333;9.596;-3.733;-0.005;0.026;0.046;
20190926_022441;0.323;9.598;-3.701;-0.008;0.026;0.047;
20190926_022441;0.321;9.591;-3.713;-0.007;0.026;0.047;
20190926_022441;0.350;9.550;-3.689;-0.006;0.028;0.047;
20190926_022441;0.354;9.515;-3.646;-0.007;0.028;0.048;
20190926_022441;0.302;9.529;-3.682;-0.005;0.029;0.048;
20190926_022441;0.321;9.483;-3.682;-0.006;0.028;0.048;
20190926_022441;0.321;9.443;-3.658;-0.008;0.029;0.047;
20190926_022441;0.345;9.409;-3.615;-0.007;0.029;0.047;
20190926_022442;0.359;9.419;-3.613;-0.007;0.030;0.048;
20190926_022442;0.378;9.402;-3.625;-0.008;0.030;0.048;
20190926_022442;0.345;9.371;-3.654;-0.008;0.030;0.048;
20190926_022442;0.328;9.335;-3.596;-0.008;0.031;0.050;
20190926_022442;0.333;9.354;-3.589;-0.008;0.029;0.048;
20190926_022442;0.316;9.321;-3.627;-0.009;0.031;0.048;
20190926_022442;0.323;9.311;-3.582;-0.010;0.031;0.047;
20190926_022442;0.316;9.246;-3.563;-0.009;0.032;0.046;
20190926_022442;0.352;9.268;-3.608;-0.008;0.031;0.047;
20190926_022442;0.352;9.299;-3.570;-0.009;0.032;0.045;
20190926_022443;0.354;9.222;-3.558;-0.009;0.032;0.043;
20190926_022443;0.345;9.225;-3.579;-0.009;0.032;0.043;
20190926_022443;0.335;9.225;-3.558;-0.010;0.032;0.042;
20190926_022443;0.330;9.196;-3.529;-0.011;0.032;0.042;
20190926_022443;0.321;9.179;-3.531;-0.011;0.032;0.040;
20190926_022443;0.318;9.170;-3.519;-0.011;0.032;0.039;
20190926_022443;0.311;9.167;-3.524;-0.004;0.005;-0.007;
20190926_022443;0.338;9.139;-3.498;-0.003;0.006;-0.007;
20190926_022443;0.347;9.151;-3.491;-0.006;0.005;-0.008;
20190926_022444;0.345;9.088;-3.522;-0.005;0.006;-0.008;
20190926_022444;0.311;9.050;-3.524;-0.005;0.006;-0.010;
20190926_022444;0.326;9.074;-3.498;-0.008;0.006;-0.012;
20190926_022444;0.321;9.026;-3.448;-0.007;0.006;-0.011;
20190926_022444;0.333;9.062;-3.476;-0.005;0.006;-0.013;
20190926_022444;0.321;9.041;-3.479;-0.006;0.005;-0.012;
20190926_022444;0.328;9.033;-3.498;-0.004;0.007;-0.013;
20190926_022444;0.333;8.971;-3.505;-0.004;0.007;-0.014;
20190926_022444;0.304;8.983;-3.462;-0.006;0.007;-0.015;
20190926_022444;0.309;8.966;-3.474;-0.006;0.007;-0.016;
20190926_022445;0.318;8.988;-3.433;-0.006;0.006;-0.016;
20190926_022445;0.292;8.983;-3.438;-0.005;0.007;-0.017;
20190926_022445;0.311;8.942;-3.428;-0.005;0.005;-0.017;
20190926_022445;0.294;8.962;-3.445;-0.005;0.007;-0.019;
20190926_022445;0.290;8.914;-3.436;-0.004;0.006;-0.019;
20190926_022445;0.283;8.928;-3.436;-0.006;0.006;-0.021;
20190926_022445;0.311;8.892;-3.433;-0.007;0.007;-0.022;
20190926_022445;0.306;8.861;-3.388;-0.007;0.007;-0.022;
20190926_022445;0.323;8.859;-3.397;-0.004;0.006;-0.023;
20190926_022446;0.297;8.851;-3.414;-0.005;0.007;-0.023;
20190926_022446;0.275;8.875;-3.381;-0.006;0.005;-0.024;
20190926_022446;0.304;8.918;-3.407;-0.006;0.006;-0.024;
20190926_022446;0.278;8.856;-3.436;-0.007;0.007;-0.025;
20190926_022446;0.285;8.827;-3.433;-0.004;0.005;-0.025;
20190926_022446;0.304;8.837;-3.436;-0.006;0.005;-0.028;
20190926_022446;0.287;8.851;-3.479;-0.006;0.006;-0.029;
20190926_022446;0.294;8.794;-3.390;-0.005;0.005;-0.028;
20190926_022446;0.268;8.863;-3.409;-0.004;0.004;-0.030;
20190926_022447;0.280;8.811;-3.443;-0.005;0.004;-0.030;
20190926_022447;0.259;8.784;-3.417;-0.005;0.004;-0.030;
20190926_022447;0.299;8.849;-3.419;-0.004;0.005;-0.032;
20190926_022447;0.285;8.808;-3.445;-0.008;0.005;-0.032;
20190926_022447;0.271;8.803;-3.474;-0.006;0.005;-0.033;
20190926_022447;0.275;8.808;-3.457;-0.006;0.004;-0.033;
20190926_022447;0.299;8.823;-3.469;-0.004;0.003;-0.034;
20190926_022447;0.285;8.813;-3.481;-0.005;0.004;-0.034;
20190926_022447;0.306;8.839;-3.445;-0.006;0.003;-0.036;
20190926_022447;0.285;8.827;-3.481;-0.005;0.004;-0.036;
20190926_022448;0.263;8.825;-3.486;-0.004;0.004;-0.036;
20190926_022448;0.285;8.839;-3.508;-0.007;0.002;-0.037;
20190926_022448;0.283;8.854;-3.546;-0.004;0.004;-0.037;
20190926_022448;0.299;8.825;-3.512;-0.004;0.003;-0.039;
20190926_022448;0.285;8.866;-3.519;-0.006;0.004;-0.037;
20190926_022448;0.304;8.892;-3.563;-0.007;0.004;-0.039;
20190926_022448;0.309;8.880;-3.512;-0.004;0.003;-0.040;
20190926_022448;0.299;8.894;-3.560;-0.003;0.003;-0.039;
20190926_022448;0.306;8.863;-3.488;-0.006;0.002;-0.040;
20190926_022449;0.323;8.882;-3.531;-0.003;0.003;-0.040;
20190926_022449;0.292;8.918;-3.546;-0.005;0.003;-0.041;
20190926_022449;0.314;8.873;-3.500;-0.002;0.003;-0.043;
20190926_022449;0.294;8.918;-3.546;-0.004;0.003;-0.043;
20190926_022449;0.287;8.942;-3.594;-0.006;0.003;-0.041;
20190926_022449;0.294;8.911;-3.551;-0.002;0.002;-0.044;
20190926_022449;0.309;8.918;-3.598;-0.006;0.003;-0.044;
20190926_022449;0.302;8.866;-3.551;-0.006;0.004;-0.043;
20190926_022449;0.294;8.875;-3.548;-0.005;0.003;-0.044;
20190926_022449;0.292;8.926;-3.575;-0.006;0.002;-0.045;
20190926_022450;0.292;8.942;-3.553;-0.004;0.003;-0.044;
20190926_022450;0.297;8.935;-3.548;-0.006;0.004;-0.046;
20190926_022450;0.304;8.866;-3.508;-0.006;0.003;-0.045;
20190926_022450;0.294;8.952;-3.615;-0.002;0.002;-0.046;
20190926_022450;0.304;8.940;-3.560;-0.003;0.002;-0.047;
20190926_022450;0.302;8.921;-3.555;-0.008;0.003;-0.046;
20190926_022450;0.285;8.928;-3.558;-0.003;0.002;-0.047;
20190926_022450;0.304;8.942;-3.642;-0.007;0.004;-0.046;
20190926_022450;0.302;8.950;-3.584;-0.005;0.001;-0.048;
20190926_022451;0.287;8.988;-3.598;-0.001;0.002;-0.050;
20190926_022451;0.318;8.985;-3.615;-0.004;0.001;-0.047;
20190926_022451;0.316;9.014;-3.630;-0.003;0.002;-0.048;
20190926_022451;0.294;8.985;-3.587;-0.006;0.003;-0.048;
20190926_022451;0.285;9.007;-3.565;-0.003;0.001;-0.049;
20190926_022451;0.302;9.038;-3.613;-0.003;0.002;-0.049;
20190926_022451;0.297;9.055;-3.670;-0.004;0.001;-0.049;
20190926_022451;0.316;9.012;-3.625;-0.002;0.003;-0.048;
20190926_022451;0.299;9.098;-3.697;0.001;0.002;-0.050;
20190926_022452;0.304;9.074;-3.699;-0.005;0.001;-0.050;
20190926_022452;0.285;9.074;-3.677;-0.003;0.001;-0.050;
20190926_022452;0.304;9.096;-3.663;-0.001;0.002;-0.049;
20190926_022452;0.280;9.091;-3.699;-0.004;0.002;-0.050;
20190926_022452;0.285;9.100;-3.668;-0.004;0.002;-0.050;
20190926_022452;0.302;9.117;-3.740;-0.005;0.002;-0.050;
20190926_022452;0.285;9.105;-3.656;-0.004;0.001;-0.051;
20190926_022452;0.314;9.127;-3.711;-0.002;0.002;-0.051;
20190926_022452;0.283;9.131;-3.716;-0.003;0.001;-0.051;
20190926_022452;0.304;9.117;-3.730;-0.005;0.002;-0.050;
20190926_022453;0.290;9.127;-3.701;-0.004;0.002;-0.050;
20190926_022453;0.275;9.117;-3.677;-0.001;0.002;-0.050;
20190926_022453;0.294;9.124;-3.711;-0.003;0.002;-0.051;
20190926_022453;0.299;9.124;-3.757;-0.003;0.002;-0.050;
20190926_022453;0.297;9.177;-3.716;-0.004;0.002;-0.051;
20190926_022453;0.306;9.098;-3.723;-0.006;0.002;-0.052;
20190926_022453;0.302;9.129;-3.704;-0.005;0.001;-0.051;
20190926_022453;0.283;9.105;-3.735;-0.002;0.000;-0.002;
20190926_022453;0.311;9.129;-3.759;0.000;-0.002;-0.004;
20190926_022454;0.283;9.100;-3.723;-0.001;-0.001;-0.004;
20190926_022454;0.268;9.199;-3.797;0.003;-0.001;-0.004;
20190926_022454;0.290;9.122;-3.804;0.007;-0.002;-0.004;
20190926_022454;0.297;9.105;-3.740;0.004;-0.001;-0.003;
20190926_022454;0.306;9.120;-3.749;-0.001;-0.001;-0.004;
20190926_022454;0.302;9.100;-3.742;-0.001;-0.001;-0.003;
20190926_022454;0.280;9.093;-3.730;-0.002;-0.001;-0.004;
20190926_022454;0.271;9.076;-3.711;-0.002;-0.002;-0.004;
20190926_022454;0.273;9.064;-3.713;-0.002;0.000;-0.004;
20190926_022454;0.266;9.064;-3.742;0.000;-0.001;-0.004;
20190926_022455;0.271;9.069;-3.737;0.000;-0.001;-0.004;
20190926_022455;0.280;9.074;-3.740;0.000;0.000;-0.005;
20190926_022455;0.249;9.057;-3.771;0.000;-0.002;-0.004;
20190926_022455;0.287;9.084;-3.828;-0.001;0.000;-0.003;
20190926_022455;0.268;9.105;-3.773;-0.001;-0.001;-0.004;
20190926_022455;0.304;9.122;-3.764;0.000;-0.002;-0.004;
20190926_022455;0.275;9.086;-3.809;-0.001;-0.001;-0.005;
20190926_022455;0.268;9.079;-3.778;-0.001;-0.001;-0.005;
20190926_022455;0.290;9.110;-3.757;0.000;0.000;-0.005;
20190926_022456;0.302;9.091;-3.675;0.004;-0.001;-0.005;
20190926_022456;0.292;9.081;-3.627;-0.005;-0.001;-0.004;
20190926_022456;0.271;9.098;-3.749;-0.003;-0.002;-0.004;
20190926_022456;0.280;9.088;-3.778;0.000;0.000;-0.005;
20190926_022456;0.254;9.096;-3.692;0.003;-0.001;-0.005;
20190926_022456;0.290;9.074;-3.632;0.004;0.000;-0.005;
20190926_022456;0.261;9.057;-3.608;0.002;-0.001;-0.004;
20190926_022456;0.299;9.055;-3.685;-0.004;-0.002;-0.005;
20190926_022456;0.261;9.045;-3.771;-0.005;-0.002;-0.005;
20190926_022456;0.275;9.033;-3.881;0.002;-0.002;-0.005;
20190926_022457;0.314;9.079;-3.618;0.006;-0.002;-0.005;
20190926_022457;0.292;9.036;-3.529;-0.009;0.000;-0.005;
20190926_022457;0.266;9.019;-3.967;-0.010;-0.002;-0.005;
20190926_022457;0.275;9.031;-3.977;-0.006;-0.001;-0.004;
20190926_022457;0.294;9.050;-3.898;0.000;-0.002;-0.005;
20190926_022457;0.273;9.007;-3.785;0.004;-0.002;-0.005;
20190926_022457;0.273;8.997;-3.680;0.009;-0.003;-0.004;
20190926_022457;0.273;9.007;-3.584;0.011;-0.002;-0.006;
20190926_022457;0.275;8.993;-3.548;0.012;-0.002;-0.005;
20190926_022457;0.244;8.993;-3.536;-0.012;0.000;-0.007;
20190926_022458;0.311;8.990;-3.991;-0.014;-0.002;-0.007;
20190926_022458;0.271;8.966;-4.003;-0.012;-0.002;-0.006;
20190926_022458;0.309;8.997;-4.094;0.016;-0.002;-0.006;
20190926_022458;0.290;8.969;-4.005;-0.008;-0.002;-0.006;
20190926_022458;0.306;9.000;-4.017;-0.005;-0.002;-0.007;
20190926_022458;0.271;8.947;-3.958;-0.004;-0.002;-0.006;
20190926_022458;0.263;8.942;-3.974;-0.003;-0.003;-0.005;
20190926_022458;0.261;8.962;-3.972;-0.002;-0.004;-0.005;
20190926_022458;0.278;8.964;-3.960;0.006;0.000;-0.000;
20190926_022459;0.271;8.954;-3.536;0.005;-0.001;-0.000;
20190926_022459;0.273;8.964;-3.543;0.010;-0.001;-0.000;
20190926_022459;0.273;8.952;-3.508;-0.016;0.000;-0.001;
20190926_022459;0.283;8.954;-3.922;-0.014;0.000;-0.001;
20190926_022459;0.287;8.983;-3.886;-0.016;0.001;-0.001;
20190926_022459;0.311;8.964;-3.809;-0.013;0.001;-0.002;
20190926_022459;0.283;9.021;-3.819;0.012;-0.002;-0.000;
20190926_022459;0.256;8.947;-3.936;0.006;-0.003;-0.000;
20190926_022459;0.287;8.957;-3.941;0.005;-0.003;-0.000;
20190926_022459;0.287;8.952;-3.974;-0.001;-0.003;-0.001;
20190926_022500;0.290;8.954;-3.991;0.010;-0.002;-0.000;
20190926_022500;0.235;8.933;-3.728;0.007;-0.002;-0.001;
20190926_022500;0.273;8.933;-3.792;-0.003;0.000;-0.001;
20190926_022500;0.285;8.962;-3.634;0.003;0.000;-0.001;
20190926_022500;0.304;8.973;-3.718;-0.010;0.000;-0.001;
20190926_022500;0.294;8.966;-3.745;0.011;-0.002;-0.001;
20190926_022500;0.271;8.933;-3.797;-0.004;0.000;-0.001;
20190926_022500;0.294;8.942;-3.862;-0.001;-0.001;-0.001;
20190926_022500;0.273;8.952;-3.893;0.002;0.000;0.001;
20190926_022501;0.266;8.952;-3.802;0.001;-0.002;-0.001;
20190926_022501;0.268;8.930;-3.891;-0.000;-0.001;-0.001;
20190926_022501;0.283;8.940;-3.898;-0.000;-0.002;-0.002;
20190926_022501;0.271;8.945;-3.838;-0.002;-0.001;-0.001;
20190926_022501;0.259;8.938;-3.802;-0.001;-0.002;-0.001;
20190926_022501;0.254;8.942;-3.757;-0.004;0.000;-0.000;
20190926_022501;0.283;8.988;-3.843;-0.003;0.000;-0.001;
20190926_022501;0.278;8.945;-3.785;-0.001;-0.002;-0.001;
20190926_022501;0.292;8.973;-3.790;0.002;-0.003;-0.001;
20190926_022501;0.297;8.954;-3.828;0.001;-0.001;-0.001;
20190926_022502;0.261;8.950;-3.840;-0.001;-0.001;-0.000;
20190926_022502;0.259;8.964;-3.783;-0.002;-0.001;-0.001;
20190926_022502;0.283;8.962;-3.802;-0.002;0.000;-0.000;
20190926_022502;0.254;8.928;-3.804;-0.001;-0.001;-0.001;
20190926_022502;0.290;8.940;-3.816;0.003;-0.001;-0.000;
20190926_022502;0.223;8.985;-3.826;0.003;-0.001;-0.001;
20190926_022502;0.309;8.954;-3.850;-0.000;0.000;-0.000;
20190926_022502;0.273;8.993;-3.816;-0.000;-0.002;-0.001;
20190926_022502;0.280;8.985;-3.819;-0.002;-0.001;-0.001;
20190926_022503;0.275;8.971;-3.847;-0.002;0.000;-0.001;
20190926_022503;0.278;8.962;-3.828;0.001;-0.002;-0.001;
20190926_022503;0.268;9.014;-3.879;0.001;-0.001;-0.000;
20190926_022503;0.271;9.002;-3.840;-0.000;-0.001;-0.000;
20190926_022503;0.271;9.002;-3.783;-0.000;-0.001;-0.001;
20190926_022503;0.263;8.995;-3.840;-0.009;0.000;0.001;
20190926_022503;0.254;8.983;-3.879;0.002;-0.001;-0.000;
20190926_022503;0.271;9.009;-3.955;-0.001;-0.002;-0.000;
20190926_022503;0.271;9.024;-3.891;0.005;0.000;0.001;
20190926_022503;0.285;9.038;-3.924;0.000;0.001;0.001;
20190926_022504;0.254;9.021;-3.922;0.002;0.001;0.001;
20190926_022504;0.261;8.988;-3.943;0.001;-0.001;0.001;
20190926_022504;0.259;9.041;-3.859;-0.003;0.001;0.001;
20190926_022504;0.256;9.033;-3.857;-0.002;0.001;0.002;
20190926_022504;0.256;9.009;-3.955;0.001;-0.001;0.001;
20190926_022504;0.287;9.041;-3.898;-0.002;0.000;-0.000;
20190926_022504;0.280;9.033;-3.938;-0.002;-0.001;0.001;
20190926_022504;0.271;9.029;-3.994;0.001;-0.002;0.001;
20190926_022504;0.256;9.029;-3.883;-0.002;0.001;0.001;
20190926_022505;0.249;9.024;-3.996;0.000;0.000;0.001;
20190926_022505;0.271;9.031;-3.955;0.002;0.000;0.002;
20190926_022505;0.283;9.005;-3.891;-0.001;0.001;0.001;
20190926_022505;0.271;9.009;-3.979;-0.001;0.001;0.002;
20190926_022505;0.239;9.014;-3.929;0.000;-0.001;0.002;
20190926_022505;0.218;9.029;-3.962;0.001;-0.001;0.002;
20190926_022505;0.244;9.026;-3.972;0.001;-0.001;0.002;
20190926_022505;0.251;8.997;-3.905;-0.002;-0.001;0.003;
20190926_022505;0.249;9.002;-3.929;-0.002;0.000;0.002;
20190926_022505;0.230;8.993;-3.974;0.003;-0.001;0.001;
20190926_022506;0.237;9.017;-3.974;0.001;-0.002;0.002;
20190926_022506;0.223;9.005;-3.936;-0.002;-0.001;0.002;
20190926_022506;0.251;9.002;-3.931;0.000;-0.001;0.002;
20190926_022506;0.251;8.964;-3.915;-0.001;-0.001;0.003;
20190926_022506;0.242;8.962;-3.912;-0.001;-0.001;0.002;
20190926_022506;0.263;8.959;-3.905;0.000;-0.001;0.002;
20190926_022506;0.259;8.959;-3.936;-0.001;-0.001;0.001;
20190926_022506;0.285;8.916;-3.912;-0.003;-0.001;0.002;
20190926_022506;0.266;8.878;-3.915;-0.001;-0.002;0.001;
20190926_022507;0.287;8.978;-3.891;0.001;-0.002;-0.000;
20190926_022507;0.287;8.902;-3.879;-0.002;-0.001;-0.000;
20190926_022507;0.294;8.890;-3.919;-0.001;-0.002;0.002;
20190926_022507;0.273;8.894;-3.869;-0.004;-0.002;0.001;
20190926_022507;0.247;8.890;-3.907;-0.001;0.000;-0.000;
20190926_022507;0.290;8.911;-3.871;-0.002;-0.002;0.001;
20190926_022507;0.278;8.887;-3.922;-0.001;-0.001;0.001;
20190926_022507;0.271;8.911;-3.883;0.003;-0.003;-0.000;
20190926_022507;0.263;8.933;-3.836;-0.002;0.000;-0.000;
20190926_022507;0.283;8.894;-3.955;-0.003;-0.001;0.003;
20190926_022508;0.273;8.921;-3.895;-0.001;-0.002;0.003;
20190926_022508;0.261;8.914;-3.900;-0.002;0.000;0.004;
20190926_022508;0.242;8.875;-3.919;0.001;-0.001;0.004;
20190926_022508;0.263;8.897;-3.857;-0.002;0.001;0.005;
20190926_022508;0.261;8.923;-3.984;0.002;0.000;0.006;
20190926_022508;0.275;8.909;-3.836;-0.005;0.003;0.007;
20190926_022508;0.251;8.899;-3.958;0.001;-0.001;0.009;
20190926_022508;0.247;8.885;-3.812;-0.003;0.003;0.011;
20190926_022508;0.261;8.880;-3.922;-0.004;0.002;0.011;
20190926_022509;0.184;8.861;-3.912;-0.000;0.006;0.012;
20190926_022509;0.261;8.854;-3.857;-0.002;0.006;0.015;
20190926_022509;0.302;8.873;-3.926;-0.002;0.004;0.013;
20190926_022509;0.254;8.839;-3.974;0.003;0.004;0.016;
20190926_022509;0.237;8.844;-3.831;0.001;0.006;0.017;
20190926_022509;0.299;8.847;-3.881;0.001;0.004;0.017;
20190926_022509;0.249;8.844;-3.788;-0.000;0.006;0.020;
20190926_022509;0.318;8.856;-3.855;-0.000;0.006;0.020;
20190926_022509;0.321;8.851;-3.879;-0.000;0.007;0.021;
20190926_022509;0.297;8.803;-3.864;-0.001;0.009;0.022;
20190926_022510;0.292;8.835;-3.891;-0.000;0.008;0.022;
20190926_022510;0.297;8.815;-3.879;-0.004;0.010;0.023;
20190926_022510;0.321;8.837;-3.905;0.001;0.009;0.024;
20190926_022510;0.311;8.820;-3.912;0.001;0.010;0.025;
20190926_022510;0.316;8.844;-3.845;0.002;0.010;0.024;
20190926_022510;0.326;8.811;-3.869;0.003;0.010;0.026;
20190926_022510;0.318;8.847;-3.840;-0.000;0.014;0.026;
20190926_022510;0.354;8.815;-3.850;0.001;0.012;0.028;
20190926_022510;0.328;8.794;-3.824;-0.000;0.014;0.029;
20190926_022511;0.373;8.820;-3.836;-0.000;0.013;0.031;
20190926_022511;0.314;8.813;-3.847;0.001;0.015;0.031;
20190926_022511;0.347;8.815;-3.862;0.002;0.015;0.031;
20190926_022511;0.316;8.815;-3.857;0.001;0.016;0.033;
20190926_022511;0.323;8.775;-3.845;0.003;0.016;0.033;
20190926_022511;0.357;8.820;-3.847;0.003;0.016;0.033;
20190926_022511;0.323;8.820;-3.871;0.002;0.017;0.034;
20190926_022511;0.362;8.815;-3.824;-0.000;0.018;0.035;
20190926_022511;0.359;8.827;-3.895;0.003;0.020;0.036;
20190926_022512;0.364;8.832;-3.900;0.004;0.018;0.037;
20190926_022512;0.323;8.882;-3.840;0.002;0.021;0.037;
20190926_022512;0.338;8.827;-3.929;-0.001;0.021;0.038;
20190926_022512;0.333;8.871;-3.840;-0.004;0.021;0.039;
20190926_022512;0.359;8.899;-3.900;0.001;0.022;0.039;
20190926_022512;0.340;8.947;-3.871;0.006;0.021;0.039;
20190926_022512;0.323;8.914;-3.979;-0.001;0.025;0.041;
20190926_022512;0.323;8.990;-3.871;0.002;0.024;0.040;
20190926_022512;0.309;9.021;-4.013;0.007;0.024;0.041;
20190926_022512;0.304;8.990;-3.881;0.001;0.025;0.042;
20190926_022513;0.333;9.017;-4.032;0.003;0.026;0.042;
20190926_022513;0.309;9.031;-4.001;0.004;0.025;0.043;
20190926_022513;0.311;9.093;-4.017;0.005;0.025;0.043;
20190926_022513;0.309;9.100;-3.996;0.006;0.025;0.042;
20190926_022513;0.328;9.108;-3.917;0.001;0.026;0.043;
20190926_022513;0.366;9.084;-3.998;0.003;0.026;0.044;
20190926_022513;0.347;9.131;-3.962;0.002;0.029;0.043;
20190926_022513;0.323;9.127;-4.063;0.005;0.028;0.043;
20190926_022513;0.350;9.127;-4.017;0.003;0.029;0.042;
20190926_022514;0.369;9.148;-4.065;0.005;0.028;0.042;
20190926_022514;0.352;9.124;-3.979;0.006;0.028;0.042;
20190926_022514;0.407;9.112;-4.010;0.001;0.030;0.043;
20190926_022514;0.378;9.122;-4.015;0.004;0.029;0.042;
20190926_022514;0.378;9.148;-4.013;0.004;0.030;0.042;
20190926_022514;0.405;9.112;-4.022;0.005;0.030;0.042;
20190926_022514;0.371;9.151;-4.037;0.005;0.030;0.041;
20190926_022514;0.381;9.151;-4.046;0.003;0.031;0.042;
20190926_022514;0.409;9.141;-4.049;0.004;0.030;0.041;
20190926_022515;0.405;9.163;-4.070;0.006;0.032;0.040;
20190926_022515;0.424;9.120;-4.051;0.008;0.031;0.039;
20190926_022515;0.390;9.146;-4.027;0.002;0.032;0.040;
20190926_022515;0.381;9.120;-4.063;0.006;0.032;0.039;
20190926_022515;0.436;9.139;-4.003;0.004;0.034;0.038;
20190926_022515;0.407;9.139;-4.070;0.008;0.034;0.038;
20190926_022515;0.419;9.139;-3.962;0.004;0.035;0.038;
20190926_022515;0.407;9.117;-4.080;0.009;0.033;0.037;
20190926_022515;0.431;9.163;-3.996;0.008;0.034;0.036;
20190926_022515;0.412;9.153;-4.113;0.008;0.034;0.037;
20190926_022516;0.378;9.096;-4.034;0.008;0.035;0.037;
20190926_022516;0.402;9.196;-4.027;0.012;0.035;0.035;
20190926_022516;0.385;9.160;-3.996;0.007;0.037;0.035;
20190926_022516;0.366;9.163;-3.986;0.001;0.039;0.035;
20190926_022516;0.390;9.170;-4.111;0.011;0.034;0.036;
20190926_022516;0.371;9.249;-4.027;0.003;0.037;0.033;
20190926_022516;0.385;9.182;-4.132;0.002;0.038;0.034;
20190926_022516;0.345;9.215;-4.056;0.004;0.037;0.032;
20190926_022516;0.359;9.227;-4.108;0.004;0.038;0.033;
20190926_022517;0.347;9.249;-4.087;0.001;0.039;0.031;
20190926_022517;0.345;9.278;-4.027;0.008;0.038;0.033;
20190926_022517;0.376;9.256;-4.142;0.009;0.038;0.032;
20190926_022517;0.357;9.333;-4.085;0.009;0.039;0.031;
20190926_022517;0.369;9.323;-4.128;0.010;0.038;0.029;
20190926_022517;0.328;9.373;-4.099;0.011;0.037;0.028;
20190926_022517;0.373;9.388;-4.168;0.014;0.037;0.028;
20190926_022517;0.323;9.421;-4.113;0.012;0.038;0.026;
20190926_022517;0.359;9.407;-4.173;0.015;0.037;0.026;
20190926_022517;0.285;9.459;-4.140;0.015;0.039;0.026;
20190926_022518;0.302;9.493;-4.214;0.008;0.038;0.026;
20190926_022518;0.304;9.505;-4.183;0.014;0.037;0.023;
20190926_022518;0.328;9.534;-4.221;0.012;0.038;0.024;
20190926_022518;0.311;9.570;-4.247;0.012;0.039;0.023;
20190926_022518;0.311;9.582;-4.266;0.017;0.035;0.022;
20190926_022518;0.333;9.620;-4.250;0.015;0.038;0.022;
20190926_022518;0.321;9.610;-4.286;0.016;0.037;0.020;
20190926_022518;0.318;9.641;-4.290;0.015;0.038;0.020;
20190926_022518;0.316;9.682;-4.264;0.016;0.037;0.019;
20190926_022518;0.304;9.708;-4.334;0.016;0.039;0.020;
20190926_022519;0.314;9.689;-4.233;0.004;-0.000;-0.014;
20190926_022519;0.321;9.732;-4.365;0.007;0.002;-0.015;
20190926_022519;0.321;9.749;-4.353;0.008;-0.000;-0.016;
20190926_022519;0.330;9.756;-4.362;0.008;0.001;-0.016;
20190926_022519;0.321;9.754;-4.298;0.008;-0.000;-0.018;
20190926_022519;0.318;9.725;-4.422;0.008;0.001;-0.018;
20190926_022519;0.304;9.799;-4.360;0.011;-0.002;-0.021;
20190926_022519;0.328;9.754;-4.427;0.010;-0.001;-0.021;
20190926_022519;0.309;9.804;-4.324;0.008;-0.001;-0.021;
20190926_022520;0.326;9.799;-4.470;0.010;-0.002;-0.022;
20190926_022520;0.309;9.845;-4.410;0.008;-0.000;-0.023;
20190926_022520;0.345;9.857;-4.441;0.010;-0.001;-0.023;
20190926_022520;0.309;9.862;-4.353;0.008;-0.000;-0.025;
20190926_022520;0.311;9.862;-4.413;0.010;-0.000;-0.025;
20190926_022520;0.338;9.907;-4.480;0.011;-0.001;-0.025;
20190926_022520;0.326;9.946;-4.463;0.010;-0.001;-0.026;
20190926_022520;0.350;9.950;-4.515;0.013;-0.001;-0.026;
20190926_022520;0.328;9.996;-4.465;0.014;-0.002;-0.027;
20190926_022521;0.345;9.981;-4.492;0.010;-0.001;-0.029;
20190926_022521;0.354;9.993;-4.537;0.010;-0.002;-0.029;
20190926_022521;0.335;10.056;-4.575;0.011;-0.002;-0.029;
20190926_022521;0.354;10.013;-4.530;0.011;-0.000;-0.029;
20190926_022521;0.345;10.058;-4.554;0.013;-0.003;-0.030;
20190926_022521;0.364;10.092;-4.554;0.014;-0.002;-0.030;
20190926_022521;0.333;10.068;-4.566;0.011;-0.004;-0.031;
20190926_022521;0.345;10.106;-4.571;0.013;-0.003;-0.030;
20190926_022521;0.354;10.142;-4.606;0.011;-0.002;-0.031;
20190926_022521;0.328;10.125;-4.568;0.010;-0.002;-0.032;
20190926_022522;0.345;10.116;-4.638;0.011;-0.003;-0.032;
20190926_022522;0.311;10.147;-4.542;0.010;-0.002;-0.031;
20190926_022522;0.354;10.159;-4.626;0.011;-0.003;-0.034;
20190926_022522;0.335;10.149;-4.642;0.013;-0.002;-0.034;
20190926_022522;0.342;10.199;-4.602;0.014;-0.003;-0.035;
20190926_022522;0.338;10.171;-4.666;0.013;-0.002;-0.035;
20190926_022522;0.338;10.206;-4.578;0.010;-0.003;-0.035;
20190926_022522;0.359;10.206;-4.705;0.014;-0.004;-0.036;
20190926_022522;0.338;10.240;-4.676;0.013;-0.003;-0.037;
20190926_022523;0.352;10.271;-4.630;0.013;-0.003;-0.037;
20190926_022523;0.366;10.223;-4.709;0.014;-0.003;-0.036;
20190926_022523;0.333;10.278;-4.566;0.013;-0.002;-0.037;
20190926_022523;0.333;10.276;-4.690;0.014;-0.004;-0.038;
20190926_022523;0.302;10.269;-4.633;0.011;-0.002;-0.039;
20190926_022523;0.328;10.264;-4.626;0.013;-0.004;-0.039;
20190926_022523;0.304;10.271;-4.683;0.014;-0.003;-0.039;
20190926_022523;0.294;10.281;-4.628;0.011;-0.003;-0.039;
20190926_022523;0.314;10.276;-4.700;0.014;-0.003;-0.040;
20190926_022524;0.326;10.288;-4.724;0.016;-0.003;-0.040;
20190926_022524;0.321;10.302;-4.671;0.014;-0.003;-0.040;
20190926_022524;0.338;10.281;-4.752;0.004;-0.002;-0.010;
20190926_022524;0.283;10.245;-4.709;0.000;-0.001;-0.010;
20190926_022524;0.297;10.312;-4.683;0.000;-0.001;-0.010;
20190926_022524;0.292;10.305;-4.717;0.004;-0.002;-0.011;
20190926_022524;0.299;10.314;-4.709;0.000;-0.002;-0.011;
20190926_022524;0.297;10.257;-4.705;0.001;-0.001;-0.012;
20190926_022524;0.285;10.288;-4.681;0.000;-0.000;-0.012;
20190926_022525;0.316;10.319;-4.666;0.000;-0.001;-0.012;
20190926_022525;0.316;10.262;-4.681;0.003;-0.002;-0.012;
20190926_022525;0.273;10.297;-4.736;0.005;-0.002;-0.012;
20190926_022525;0.311;10.266;-4.666;0.005;-0.004;-0.013;
20190926_022525;0.299;10.254;-4.664;0.001;-0.004;-0.014;
20190926_022525;0.290;10.242;-4.700;-0.001;-0.004;-0.013;
20190926_022525;0.285;10.226;-4.731;-0.001;-0.003;-0.013;
20190926_022525;0.314;10.223;-4.635;-0.001;-0.003;-0.013;
20190926_022525;0.318;10.190;-4.700;-0.001;-0.005;-0.014;
20190926_022525;0.292;10.187;-4.719;-0.002;-0.003;-0.016;
20190926_022526;0.314;10.171;-4.642;-0.002;-0.003;-0.015;
20190926_022526;0.333;10.192;-4.683;-0.001;-0.006;-0.016;
20190926_022526;0.299;10.144;-4.683;-0.001;-0.002;-0.016;
20190926_022526;0.280;10.149;-4.628;-0.001;-0.003;-0.016;
20190926_022526;0.321;10.163;-4.590;-0.005;-0.003;-0.016;
20190926_022526;0.316;10.132;-4.659;-0.003;-0.003;-0.017;
20190926_022526;0.273;10.137;-4.642;-0.004;-0.004;-0.016;
20190926_022526;0.299;10.139;-4.626;0.000;-0.004;-0.016;
20190926_022526;0.306;10.156;-4.678;0.003;-0.005;-0.017;
20190926_022526;0.290;10.075;-4.676;-0.001;-0.005;-0.016;
20190926_022527;0.306;10.135;-4.733;0.000;-0.004;-0.017;
20190926_022527;0.273;10.077;-4.599;-0.001;-0.004;-0.017;
20190926_022527;0.304;10.125;-4.678;-0.003;-0.004;-0.018;
20190926_022527;0.280;10.111;-4.666;-0.001;-0.004;-0.018;
20190926_022527;0.304;10.070;-4.604;0.000;-0.005;-0.017;
20190926_022527;0.280;10.106;-4.642;-0.003;-0.006;-0.018;
20190926_022527;0.292;10.106;-4.702;-0.001;-0.005;-0.018;
20190926_022527;0.294;10.065;-4.645;-0.001;-0.006;-0.017;
20190926_022527;0.280;10.120;-4.618;-0.001;-0.005;-0.017;
20190926_022528;0.309;10.077;-4.676;-0.003;-0.005;-0.019;
20190926_022528;0.309;10.048;-4.681;-0.004;-0.005;-0.018;
20190926_022528;0.275;10.072;-4.654;-0.003;-0.005;-0.018;
20190926_022528;0.302;10.080;-4.635;-0.002;-0.006;-0.019;
20190926_022528;0.275;10.087;-4.681;0.001;-0.005;-0.019;
20190926_022528;0.256;10.051;-4.652;-0.001;-0.005;-0.018;
20190926_022528;0.280;10.032;-4.645;-0.002;-0.005;-0.017;
20190926_022528;0.268;10.044;-4.618;-0.001;-0.006;-0.019;
20190926_022528;0.304;10.025;-4.609;-0.004;-0.006;-0.019;
20190926_022529;0.290;10.017;-4.621;-0.003;-0.006;-0.018;
20190926_022529;0.283;10.025;-4.662;0.002;-0.002;-0.004;
20190926_022529;0.290;9.993;-4.606;-0.001;-0.002;-0.004;
20190926_022529;0.328;10.003;-4.587;0.001;-0.002;-0.004;
20190926_022529;0.268;10.010;-4.659;-0.001;-0.003;-0.003;
20190926_022529;0.227;9.989;-4.678;-0.000;-0.002;-0.003;
20190926_022529;0.259;9.977;-4.597;-0.004;-0.003;-0.003;
20190926_022529;0.283;9.972;-4.580;-0.006;-0.004;-0.004;
20190926_022529;0.309;9.957;-4.604;-0.006;-0.003;-0.005;
20190926_022529;0.290;9.898;-4.602;-0.005;-0.003;-0.004;
20190926_022530;0.294;9.914;-4.590;-0.005;-0.004;-0.004;
20190926_022530;0.290;9.917;-4.628;-0.005;-0.004;-0.004;
20190926_022530;0.266;9.917;-4.592;-0.004;-0.003;-0.004;
20190926_022530;0.266;9.874;-4.563;-0.005;-0.002;-0.005;
20190926_022530;0.294;9.902;-4.539;-0.004;-0.003;-0.006;
20190926_022530;0.299;9.855;-4.566;-0.005;-0.003;-0.005;
20190926_022530;0.266;9.876;-4.559;-0.002;-0.003;-0.005;
20190926_022530;0.278;9.850;-4.554;-0.005;-0.004;-0.005;
20190926_022530;0.287;9.855;-4.573;-0.005;-0.004;-0.006;
20190926_022531;0.283;9.850;-4.551;-0.005;-0.003;-0.005;
20190926_022531;0.254;9.807;-4.547;-0.006;-0.002;-0.005;
20190926_022531;0.275;9.804;-4.525;-0.007;-0.003;-0.005;
20190926_022531;0.292;9.802;-4.489;-0.004;-0.004;-0.004;
20190926_022531;0.275;9.790;-4.496;-0.006;-0.004;-0.005;
20190926_022531;0.311;9.790;-4.559;-0.002;-0.005;-0.005;
20190926_022531;0.211;9.792;-4.597;-0.000;-0.004;-0.004;
20190926_022531;0.294;9.771;-4.480;-0.004;-0.004;-0.004;
20190926_022531;0.292;9.787;-4.508;-0.002;-0.004;-0.005;
20190926_022531;0.311;9.718;-4.439;-0.008;-0.002;-0.005;
20190926_022532;0.304;9.716;-4.518;-0.006;-0.004;-0.005;
20190926_022532;0.287;9.754;-4.523;-0.005;-0.004;-0.004;
20190926_022532;0.285;9.725;-4.501;-0.005;-0.003;-0.004;
20190926_022532;0.268;9.697;-4.448;-0.004;-0.004;-0.005;
20190926_022532;0.278;9.697;-4.475;-0.004;-0.004;-0.005;
20190926_022532;0.287;9.728;-4.480;-0.004;-0.004;-0.005;
20190926_022532;0.232;9.689;-4.489;-0.005;-0.004;-0.004;
20190926_022532;0.271;9.716;-4.535;-0.001;-0.004;-0.003;
20190926_022532;0.304;9.713;-4.484;-0.004;-0.005;-0.004;
20190926_022533;0.287;9.656;-4.453;-0.006;-0.002;-0.004;
20190926_022533;0.287;9.706;-4.441;-0.008;-0.003;-0.005;
20190926_022533;0.323;9.680;-4.389;-0.004;-0.002;-0.000;
20190926_022533;0.347;9.708;-4.436;-0.003;-0.001;0.001;
20190926_022533;0.302;9.641;-4.453;-0.003;-0.001;0.001;
20190926_022533;0.311;9.701;-4.487;0.002;0.001;0.001;
20190926_022533;0.268;9.675;-4.460;-0.000;0.001;0.001;
20190926_022533;0.278;9.677;-4.413;0.001;-0.002;0.001;
20190926_022533;0.275;9.706;-4.458;-0.003;0.001;0.002;
20190926_022533;0.283;9.670;-4.436;0.002;0.001;0.001;
20190926_022534;0.304;9.675;-4.451;-0.000;0.001;0.001;
20190926_022534;0.290;9.670;-4.482;0.001;-0.001;0.002;
20190926_022534;0.280;9.692;-4.477;0.001;-0.002;0.001;
20190926_022534;0.275;9.697;-4.492;0.001;0.001;0.002;
20190926_022534;0.266;9.670;-4.429;0.001;0.002;0.002;
20190926_022534;0.266;9.663;-4.429;-0.001;-0.002;0.004;
20190926_022534;0.294;9.687;-4.458;-0.001;0.002;0.004;
20190926_022534;0.294;9.677;-4.432;-0.003;0.001;0.004;
20190926_022534;0.261;9.675;-4.465;-0.000;-0.001;0.002;
20190926_022535;0.271;9.701;-4.444;0.003;0.001;0.003;
20190926_022535;0.242;9.673;-4.417;0.001;0.001;0.002;
20190926_022535;0.254;9.661;-4.417;-0.003;-0.001;0.003;
20190926_022535;0.297;9.716;-4.477;-0.000;-0.001;0.003;
20190926_022535;0.297;9.670;-4.458;-0.003;0.001;0.004;
20190926_022535;0.290;9.658;-4.448;-0.003;0.001;0.003;
20190926_022535;0.278;9.694;-4.468;-0.003;-0.001;0.004;
20190926_022535;0.285;9.658;-4.420;-0.004;0.001;0.003;
20190926_022535;0.268;9.697;-4.389;-0.003;0.001;0.004;
20190926_022535;0.287;9.692;-4.460;0.002;-0.002;0.003;
20190926_022536;0.316;9.677;-4.424;-0.004;-0.001;0.004;
20190926_022536;0.232;9.658;-4.482;0.001;-0.002;0.004;
20190926_022536;0.275;9.665;-4.503;0.002;-0.002;0.003;
20190926_022536;0.268;9.694;-4.453;0.005;-0.001;0.004;
20190926_022536;0.280;9.701;-4.432;0.002;-0.003;0.003;
20190926_022536;0.278;9.685;-4.429;-0.000;-0.002;0.004;
20190926_022536;0.271;9.658;-4.441;-0.001;-0.002;0.005;
20190926_022536;0.275;9.675;-4.492;-0.000;-0.001;0.004;
20190926_022536;0.266;9.665;-4.441;-0.001;-0.001;0.004;
20190926_022537;0.273;9.694;-4.453;-0.003;-0.001;0.005;
20190926_022537;0.278;9.689;-4.398;-0.001;-0.001;0.004;
20190926_022537;0.285;9.653;-4.439;-0.004;-0.001;0.005;
20190926_022537;0.266;9.680;-4.489;0.003;-0.002;0.004;
20190926_022537;0.297;9.697;-4.484;0.001;0.001;0.005;
20190926_022537;0.294;9.685;-4.456;-0.003;0.001;0.004;
20190926_022537;0.273;9.687;-4.458;-0.001;0.001;0.004;
20190926_022537;0.251;9.732;-4.427;0.002;-0.001;0.005;
20190926_022537;0.278;9.656;-4.451;0.001;-0.003;0.004;
20190926_022537;0.292;9.634;-4.448;-0.005;-0.003;0.005;
20190926_022538;0.297;9.694;-4.444;-0.006;0.002;0.005;
20190926_022538;0.285;9.680;-4.484;0.007;-0.003;0.006;
20190926_022538;0.263;9.687;-4.360;-0.006;0.003;0.001;
20190926_022538;0.304;9.649;-4.446;-0.004;-0.001;0.001;
20190926_022538;0.323;9.651;-4.422;-0.004;0.001;0.001;
20190926_022538;0.290;9.656;-4.422;-0.002;-0.000;0.001;
20190926_022538;0.280;9.641;-4.417;-0.000;-0.001;0.001;
20190926_022538;0.290;9.656;-4.379;-0.001;-0.001;0.002;
20190926_022538;0.287;9.627;-4.381;-0.004;0.001;0.002;
20190926_022539;0.266;9.637;-4.415;-0.001;0.001;0.002;
20190926_022539;0.285;9.651;-4.393;0.001;-0.000;0.001;
20190926_022539;0.251;9.625;-4.381;-0.001;-0.000;0.001;
20190926_022539;0.278;9.596;-4.350;-0.002;-0.001;0.001;
20190926_022539;0.285;9.641;-4.389;-0.000;-0.001;0.001;
20190926_022539;0.314;9.627;-4.496;-0.008;-0.000;0.004;
20190926_022539;0.285;9.613;-4.422;0.001;-0.001;0.002;
20190926_022539;0.268;9.591;-4.405;-0.002;-0.000;0.003;
20190926_022539;0.283;9.598;-4.369;-0.000;-0.000;0.002;
20190926_022540;0.316;9.618;-4.365;-0.000;-0.001;0.002;
20190926_022540;0.266;9.596;-4.403;-0.004;-0.000;0.003;
20190926_022540;0.280;9.579;-4.386;-0.004;-0.000;0.003;
20190926_022540;0.292;9.558;-4.343;-0.004;-0.000;0.002;
20190926_022540;0.266;9.577;-4.381;-0.002;-0.000;0.002;
