Timestamp;Accel_x;Accel_y;Accel_z;Gyro_x;Gyro_y;Gyro_z;
20190905_070511;0,019;9,574;-2,081;0,068;-0,011;-0,005;
20190905_070511;0,017;9,467;-1,640;-0,009;-0,001;-0,005;
20190905_070511;0,010;9,464;-1,762;-0,002;-0,002;-0,004;
20190905_070511;0,022;9,550;-1,733;-0,007;-0,003;-0,004;
20190905_070511;-0,022;9,488;-1,741;-0,005;-0,003;-0,004;
20190905_070512;0,017;9,512;-1,717;-0,003;-0,003;-0,006;
20190905_070512;-0,024;9,522;-1,765;0,006;-0,001;-0,005;
20190905_070512;0,029;9,493;-1,733;-0,001;-0,005;-0,005;
20190905_070512;-0,017;9,522;-1,717;-0,006;-0,007;-0,006;
20190905_070512;0,041;9,536;-1,688;-0,007;0,000;-0,005;
20190905_070512;-0,019;9,495;-1,760;-0,003;-0,002;-0,007;
20190905_070512;0,017;9,503;-1,745;-0,003;-0,002;-0,007;
20190905_070512;0,043;9,495;-1,765;-0,004;-0,004;-0,007;
20190905_070512;-0,029;9,548;-1,674;-0,005;-0,002;-0,005;
20190905_070512;-0,017;9,565;-1,733;-0,002;-0,004;-0,005;
20190905_070513;-0,041;9,591;-1,721;-0,003;-0,002;-0,000;
20190905_070513;-0,041;9,603;-1,781;-0,005;-0,002;-0,004;
20190905_070513;-0,012;9,598;-1,709;-0,004;-0,002;-0,003;
20190905_070513;-0,002;9,591;-1,697;-0,007;0,000;-0,000;
20190905_070513;-0,005;9,582;-1,757;0,002;-0,002;-0,001;
20190905_070513;-0,007;9,646;-1,757;-0,005;-0,003;-0,001;
20190905_070513;0,069;9,507;-1,726;-0,004;-0,001;0,001;
20190905_070513;-0,002;9,579;-1,755;0,000;-0,003;-0,001;
20190905_070513;-0,038;9,488;-1,738;-0,003;-0,001;0,001;
20190905_070513;-0,074;9,579;-1,765;0,000;-0,001;-0,000;
20190905_070514;0,000;9,527;-1,707;-0,009;-0,003;-0,000;
20190905_070514;-0,065;9,594;-1,820;0,004;-0,001;0,002;
20190905_070514;-0,060;9,582;-1,731;-0,004;0,001;0,001;
20190905_070514;-0,034;9,555;-1,762;-0,001;-0,004;0,001;
20190905_070514;0,017;9,488;-1,681;-0,003;0,000;0,002;
20190905_070514;-0,108;9,601;-1,805;-0,001;-0,003;0,001;
20190905_070514;-0,093;9,610;-1,714;-0,004;-0,002;0,001;
20190905_070514;-0,012;9,653;-1,829;0,000;-0,003;0,002;
20190905_070514;0,034;9,661;-1,681;-0,008;-0,003;0,006;
20190905_070515;-0,057;9,713;-1,762;0,000;-0,004;0,001;
20190905_070515;-0,048;9,488;-1,645;-0,010;-0,005;-0,005;
20190905_070515;-0,014;9,562;-1,745;0,006;-0,005;-0,005;
20190905_070515;-0,055;9,500;-1,623;-0,010;-0,001;0,001;
20190905_070515;-0,041;9,694;-1,788;0,005;-0,004;-0,003;
20190905_070515;-0,062;9,476;-1,702;-0,010;-0,003;0,001;
20190905_070515;0,010;9,606;-1,757;0,003;-0,003;-0,001;
20190905_070515;-0,038;9,529;-1,705;-0,004;-0,003;-0,001;
20190905_070515;-0,024;9,625;-1,774;-0,001;-0,004;-0,001;
20190905_070515;-0,034;9,577;-1,745;-0,001;-0,002;0,001;
20190905_070516;0,050;9,634;-1,738;0,000;-0,002;0,002;
20190905_070516;-0,026;9,570;-1,738;-0,007;-0,005;0,002;
20190905_070516;-0,048;9,730;-1,779;0,002;-0,002;-0,001;
20190905_070516;-0,043;9,680;-1,709;-0,007;-0,002;0,003;
20190905_070516;0,048;9,787;-1,788;0,005;-0,006;-0,003;
20190905_070516;-0,036;9,670;-1,702;-0,011;-0,005;-0,003;
20190905_070516;-0,127;9,675;-1,772;-0,003;-0,004;-0,004;
20190905_070516;-0,108;9,536;-1,733;-0,011;-0,005;0,001;
20190905_070516;0,029;9,685;-1,726;-0,001;-0,001;-0,001;
20190905_070517;0,002;9,543;-1,731;-0,008;-0,002;0,008;
20190905_070517;-0,084;9,546;-1,640;-0,007;0,000;0,007;
20190905_070517;-0,108;9,517;-1,721;0,006;-0,003;0,004;
20190905_070517;0,012;9,622;-1,674;-0,005;0,002;0,003;
20190905_070517;0,069;9,412;-1,686;-0,010;-0,005;0,004;
20190905_070517;-0,103;9,589;-1,827;0,010;-0,002;0,001;
20190905_070517;0,050;9,558;-1,650;-0,008;-0,001;0,002;
20190905_070517;-0,014;9,586;-1,748;-0,003;-0,005;0,003;
20190905_070517;0,034;9,764;-1,805;-0,001;-0,001;0,001;
20190905_070517;-0,067;9,776;-1,788;-0,003;-0,004;0,001;
20190905_070518;0,007;9,615;-1,743;-0,007;-0,004;0,005;
20190905_070518;0,165;9,598;-1,757;-0,004;0,000;0,006;
20190905_070518;-0,043;9,493;-1,700;-0,008;-0,003;0,002;
20190905_070518;-0,010;9,402;-1,705;-0,006;-0,003;0,002;
20190905_070518;-0,026;9,376;-1,638;-0,005;-0,002;-0,005;
20190905_070518;0,057;9,443;-1,717;-0,002;-0,003;-0,001;
20190905_070518;0,038;9,390;-1,654;-0,007;-0,002;-0,000;
20190905_070518;0,069;9,402;-1,753;0,002;-0,003;-0,005;
20190905_070518;-0,084;9,536;-1,686;-0,002;-0,005;-0,009;
20190905_070519;-0,084;9,419;-1,702;-0,004;-0,001;-0,003;
20190905_070519;-0,010;9,486;-1,705;-0,001;-0,001;0,001;
20190905_070519;0,036;9,450;-1,686;-0,006;0,001;0,007;
20190905_070519;0,007;9,440;-1,705;-0,003;-0,001;0,006;
20190905_070519;-0,012;9,412;-1,693;-0,004;0,000;0,003;
20190905_070519;0,041;9,421;-1,678;-0,004;-0,001;0,005;
20190905_070519;-0,038;9,436;-1,666;-0,006;0,000;0,006;
20190905_070519;0,024;9,464;-1,717;-0,002;0,000;0,008;
20190905_070519;0,019;9,455;-1,664;-0,005;0,000;0,010;
20190905_070520;0,101;9,412;-1,671;-0,006;0,001;0,012;
20190905_070520;-0,067;9,335;-1,662;-0,002;-0,001;0,006;
20190905_070520;0,010;9,333;-1,647;-0,008;-0,001;0,010;
20190905_070520;-0,014;9,323;-1,657;-0,002;0,003;0,013;
20190905_070520;-0,034;9,311;-1,669;-0,005;0,000;0,012;
20190905_070520;0,045;9,335;-1,659;-0,002;0,001;0,009;
20190905_070520;-0,022;9,278;-1,618;-0,003;-0,001;0,005;
20190905_070520;-0,031;9,416;-1,678;0,002;-0,001;0,008;
20190905_070520;0,036;9,337;-1,688;-0,004;0,000;0,008;
20190905_070520;-0,053;9,471;-1,707;0,003;-0,002;0,007;
20190905_070521;0,055;9,534;-1,693;-0,004;0,001;0,004;
20190905_070521;-0,048;9,505;-1,686;-0,004;-0,001;0,002;
20190905_070521;-0,019;9,567;-1,767;0,004;-0,002;0,003;
20190905_070521;0,134;9,448;-1,640;-0,009;-0,001;0,006;
20190905_070521;-0,057;9,608;-1,765;0,004;-0,002;0,004;
20190905_070521;0,048;9,515;-1,635;-0,006;0,002;0,002;
20190905_070521;-0,062;9,653;-1,762;0,004;-0,002;0,004;
20190905_070521;-0,002;9,531;-1,697;-0,001;0,002;0,008;
20190905_070521;0,010;9,488;-1,765;-0,003;-0,002;0,008;
20190905_070522;-0,120;9,457;-1,650;-0,004;-0,002;0,003;
20190905_070522;0,086;9,491;-1,700;-0,002;-0,001;0,003;
20190905_070522;0,010;9,469;-1,633;-0,006;-0,001;0,005;
20190905_070522;-0,043;9,586;-1,741;0,003;0,000;0,002;
20190905_070522;-0,005;9,469;-1,623;-0,008;-0,002;0,005;
20190905_070522;0,000;9,500;-1,777;0,003;0,000;0,005;
20190905_070522;-0,036;9,491;-1,607;-0,008;-0,002;0,006;
20190905_070522;-0,069;9,519;-1,753;0,002;0,000;0,004;
20190905_070522;0,041;9,538;-1,616;-0,001;0,000;0,002;
20190905_070522;0,017;9,574;-1,731;-0,001;-0,001;0,007;
20190905_070523;-0,084;9,534;-1,705;-0,003;0,000;0,006;
20190905_070523;-0,026;9,541;-1,650;-0,006;-0,003;0,005;
20190905_070523;0,024;9,426;-1,729;0,002;-0,003;0,005;
20190905_070523;0,017;9,325;-1,659;-0,004;-0,001;0,004;
20190905_070523;-0,034;9,486;-1,717;0,003;-0,001;0,006;
20190905_070523;0,041;9,548;-1,693;-0,003;-0,002;0,007;
20190905_070523;-0,031;9,572;-1,755;-0,001;-0,001;0,006;
20190905_070523;-0,086;9,625;-1,695;-0,003;-0,001;0,005;
20190905_070523;0,017;9,644;-1,741;-0,002;0,000;0,006;
20190905_070523;-0,043;9,517;-1,690;-0,002;-0,001;0,007;
20190905_070524;0,022;9,531;-1,676;0,003;0,000;0,007;
20190905_070524;0,057;9,584;-1,721;-0,005;-0,002;0,007;
20190905_070524;-0,024;9,507;-1,724;-0,002;-0,003;0,004;
20190905_070524;-0,074;9,598;-1,697;0,000;-0,002;0,002;
20190905_070524;-0,084;9,498;-1,745;-0,002;-0,002;0,007;
20190905_070524;0,031;9,632;-1,678;-0,003;-0,001;0,006;
20190905_070524;0,081;9,481;-1,662;-0,001;-0,002;0,006;
20190905_070524;0,084;9,610;-1,750;0,000;0,000;0,005;
20190905_070524;0,019;9,546;-1,657;-0,007;-0,002;0,004;
20190905_070524;0,038;9,469;-1,757;-0,002;-0,002;0,001;
20190905_070525;0,053;9,483;-1,666;-0,004;-0,001;-0,003;
20190905_070525;0,077;9,606;-1,745;0,003;-0,003;-0,003;
20190905_070525;0,089;9,682;-1,726;-0,003;-0,001;-0,001;
20190905_070525;0,007;9,697;-1,767;-0,002;-0,002;-0,005;
20190905_070525;-0,012;9,658;-1,702;-0,005;0,000;-0,006;
20190905_070525;0,014;9,558;-1,678;-0,002;0,001;-0,003;
20190905_070525;-0,029;9,531;-1,693;0,002;-0,001;0,001;
20190905_070525;0,053;9,550;-1,717;-0,004;0,001;0,003;
20190905_070525;0,048;9,627;-1,690;-0,001;0,001;0,001;
20190905_070526;-0,034;9,665;-1,743;0,000;-0,001;0,002;
20190905_070526;0,079;9,677;-1,729;-0,001;0,001;0,001;
20190905_070526;0,057;9,589;-1,724;-0,003;0,001;0,004;
20190905_070526;-0,031;9,610;-1,702;-0,005;0,000;0,005;
20190905_070526;-0,007;9,651;-1,753;-0,001;0,002;0,005;
20190905_070526;-0,022;9,598;-1,729;-0,002;0,002;0,004;
20190905_070526;-0,026;9,591;-1,748;-0,001;0,000;0,004;
20190905_070526;-0,007;9,606;-1,741;0,000;0,003;0,005;
20190905_070526;-0,036;9,639;-1,738;-0,003;0,002;0,006;
20190905_070527;-0,026;9,615;-1,707;-0,001;0,001;0,006;
20190905_070527;-0,038;9,591;-1,721;-0,001;0,001;0,005;
20190905_070527;-0,048;9,596;-1,745;0,000;0,001;0,005;
20190905_070527;-0,014;9,596;-1,717;-0,002;0,002;0,007;
20190905_070527;-0,029;9,603;-1,726;-0,004;0,002;0,008;
20190905_070527;-0,055;9,553;-1,733;-0,001;0,000;0,007;
20190905_070527;-0,012;9,594;-1,707;0,000;0,001;0,007;
20190905_070527;-0,017;9,625;-1,745;-0,002;0,000;0,007;
20190905_070527;-0,043;9,620;-1,709;-0,003;0,000;0,007;
20190905_070527;-0,034;9,596;-1,721;0,000;0,001;0,005;
20190905_070528;-0,012;9,620;-1,721;-0,004;0,000;0,005;
20190905_070528;-0,084;9,675;-1,697;-0,002;0,001;0,004;
20190905_070528;-0,034;9,661;-1,729;-0,003;0,000;0,004;
20190905_070528;-0,014;9,644;-1,733;-0,002;0,000;0,003;
20190905_070528;0,019;9,629;-1,726;-0,003;-0,001;0,001;
20190905_070528;-0,055;9,606;-1,724;-0,004;-0,001;0,002;
20190905_070528;-0,012;9,613;-1,753;-0,002;-0,001;0,001;
20190905_070528;-0,005;9,596;-1,729;-0,002;-0,001;-0,000;
20190905_070528;-0,005;9,613;-1,717;-0,003;0,000;-0,003;
20190905_070528;0,022;9,594;-1,736;-0,003;-0,001;-0,000;
20190905_070529;-0,007;9,606;-1,753;-0,001;-0,002;-0,001;
20190905_070529;-0,010;9,613;-1,733;-0,005;-0,002;-0,003;
20190905_070529;-0,034;9,601;-1,693;-0,001;-0,001;-0,001;
20190905_070529;0,010;9,646;-1,765;-0,002;-0,001;-0,003;
20190905_070529;0,022;9,579;-1,724;-0,003;-0,002;-0,004;
20190905_070529;0,017;9,634;-1,745;-0,003;-0,002;-0,004;
20190905_070529;-0,012;9,620;-1,705;-0,004;-0,002;-0,004;
20190905_070529;0,041;9,579;-1,683;-0,003;-0,002;-0,006;
20190905_070529;0,017;9,591;-1,705;-0,003;-0,002;-0,005;
20190905_070530;-0,002;9,538;-1,741;-0,002;-0,001;-0,004;
20190905_070530;0,038;9,577;-1,750;-0,002;-0,001;-0,006;
20190905_070530;-0,017;9,560;-1,678;0,000;-0,001;-0,006;
20190905_070530;0,012;9,601;-1,729;-0,002;-0,002;-0,006;
20190905_070530;-0,019;9,620;-1,736;-0,004;-0,002;-0,006;
20190905_070530;0,036;9,608;-1,745;-0,004;-0,002;-0,006;
20190905_070530;0,014;9,649;-1,719;-0,003;-0,001;-0,005;
20190905_070530;-0,002;9,586;-1,762;-0,005;0,000;-0,005;
20190905_070530;0,034;9,572;-1,753;-0,003;-0,001;-0,004;
20190905_070531;0,053;9,589;-1,705;-0,005;-0,001;-0,003;
20190905_070531;-0,002;9,618;-1,741;-0,002;0,001;-0,003;
20190905_070531;-0,093;9,574;-1,729;-0,004;-0,001;-0,001;
20190905_070531;-0,014;9,546;-1,724;-0,003;-0,001;0,001;
20190905_070531;-0,029;9,550;-1,707;-0,002;0,001;0,001;
20190905_070531;-0,026;9,531;-1,693;-0,003;0,001;0,003;
20190905_070531;-0,017;9,515;-1,712;-0,001;0,002;0,002;
20190905_070531;-0,005;9,529;-1,721;-0,001;0,001;0,003;
20190905_070531;-0,057;9,503;-1,697;-0,001;0,001;0,004;
20190905_070531;0,017;9,541;-1,712;-0,001;0,001;0,002;
20190905_070532;-0,053;9,524;-1,695;-0,001;0,001;0,003;
20190905_070532;-0,060;9,488;-1,717;-0,001;0,001;0,002;
20190905_070532;0,017;9,527;-1,705;0,002;0,002;0,003;
20190905_070532;-0,024;9,555;-1,719;-0,001;-0,000;0,003;
20190905_070532;-0,036;9,574;-1,738;0,000;0,001;0,003;
20190905_070532;-0,024;9,538;-1,707;-0,001;0,001;0,003;
20190905_070532;0,002;9,615;-1,750;0,003;-0,000;0,003;
20190905_070532;-0,062;9,560;-1,769;-0,001;0,001;0,003;
20190905_070532;-0,045;9,570;-1,731;-0,002;-0,000;0,003;
20190905_070533;-0,022;9,536;-1,738;-0,002;-0,000;0,003;
20190905_070533;-0,026;9,522;-1,731;-0,001;0,001;0,002;
20190905_070533;-0,048;9,582;-1,750;0,000;-0,000;0,001;
20190905_070533;-0,010;9,565;-1,748;-0,002;-0,000;0,001;
20190905_070533;-0,031;9,572;-1,748;-0,001;-0,001;-0,000;
20190905_070533;-0,007;9,584;-1,745;-0,001;-0,001;-0,000;
20190905_070533;-0,026;9,560;-1,683;-0,002;-0,001;-0,003;
20190905_070533;-0,034;9,548;-1,755;-0,002;-0,001;-0,001;
20190905_070533;0,000;9,534;-1,726;-0,001;-0,001;-0,003;
20190905_070533;-0,069;9,536;-1,729;-0,001;-0,001;-0,004;
20190905_070534;-0,038;9,541;-1,729;-0,004;-0,003;-0,004;
20190905_070534;0,012;9,524;-1,702;-0,001;-0,002;-0,004;
20190905_070534;-0,031;9,479;-1,700;0,000;-0,001;-0,003;
20190905_070534;-0,036;9,512;-1,705;-0,003;-0,001;-0,004;
20190905_070534;-0,012;9,536;-1,721;0,000;-0,002;-0,005;
20190905_070534;-0,026;9,512;-1,707;-0,002;-0,001;-0,004;
20190905_070534;0,005;9,536;-1,717;0,000;-0,001;-0,003;
20190905_070534;-0,050;9,543;-1,731;-0,001;-0,001;-0,004;
20190905_070534;-0,029;9,517;-1,700;0,000;-0,001;-0,004;
20190905_070535;-0,005;9,519;-1,695;-0,002;-0,001;-0,004;
20190905_070535;-0,002;9,527;-1,709;-0,001;-0,002;-0,003;
20190905_070535;-0,041;9,550;-1,709;-0,001;-0,001;-0,004;
20190905_070535;0,002;9,515;-1,712;-0,001;-0,001;-0,005;
20190905_070535;-0,041;9,524;-1,671;-0,001;-0,001;-0,003;
20190905_070535;-0,002;9,474;-1,705;-0,001;-0,000;-0,003;
20190905_070535;-0,010;9,491;-1,702;0,000;0,001;-0,001;
20190905_070535;-0,024;9,543;-1,697;0,001;-0,000;-0,003;
20190905_070535;-0,048;9,505;-1,705;-0,001;0,001;-0,000;
20190905_070536;0,007;9,488;-1,681;0,000;0,001;-0,000;
20190905_070536;-0,057;9,503;-1,707;0,001;0,001;-0,000;
20190905_070536;-0,038;9,486;-1,705;0,002;0,001;-0,000;
20190905_070536;-0,036;9,550;-1,712;0,001;0,001;-0,001;
20190905_070536;-0,084;9,570;-1,683;0,001;-0,000;0,001;
20190905_070536;-0,029;9,555;-1,712;0,003;-0,000;0,001;
20190905_070536;0,000;9,527;-1,697;0,000;0,001;0,002;
20190905_070536;-0,019;9,553;-1,724;-0,001;-0,000;0,002;
20190905_070536;0,002;9,601;-1,690;0,000;0,001;0,002;
20190905_070537;-0,019;9,584;-1,721;0,000;0,001;0,001;
20190905_070537;-0,093;9,550;-1,774;0,000;0,001;0,002;
20190905_070537;-0,060;9,572;-1,726;0,000;0,001;0,002;
20190905_070537;-0,019;9,572;-1,724;0,002;0,001;0,003;
20190905_070537;-0,069;9,567;-1,750;0,000;0,001;0,002;
20190905_070537;-0,022;9,591;-1,712;0,001;0,001;0,003;
20190905_070537;-0,017;9,579;-1,733;0,000;-0,000;0,002;
20190905_070537;-0,067;9,618;-1,729;0,002;0,001;0,002;
20190905_070537;-0,007;9,613;-1,738;0,000;0,001;0,002;
20190905_070537;-0,010;9,586;-1,731;-0,001;-0,001;0,001;
20190905_070538;-0,041;9,618;-1,741;0,002;-0,000;0,001;
20190905_070538;-0,038;9,572;-1,714;0,001;-0,001;0,001;
20190905_070538;-0,062;9,598;-1,721;0,000;-0,000;0,001;
20190905_070538;-0,014;9,613;-1,736;0,001;-0,000;0,001;
20190905_070538;0,007;9,562;-1,729;0,001;-0,001;0,001;
20190905_070538;-0,026;9,629;-1,724;0,001;0,001;0,001;
20190905_070538;0,026;9,620;-1,721;0,000;-0,001;0,001;
20190905_070538;-0,024;9,570;-1,736;0,002;0,001;0,001;
20190905_070538;-0,017;9,610;-1,762;0,002;-0,001;0,001;
20190905_070539;-0,053;9,586;-1,738;0,001;-0,000;0,001;
20190905_070539;-0,002;9,582;-1,721;0,001;-0,000;-0,000;
20190905_070539;-0,024;9,618;-1,738;0,002;-0,000;-0,000;
20190905_070539;0,010;9,613;-1,719;0,001;-0,000;-0,000;
20190905_070539;-0,012;9,653;-1,717;0,001;-0,000;0,001;
20190905_070539;-0,014;9,625;-1,765;0,001;-0,000;-0,000;
20190905_070539;0,002;9,632;-1,726;0,003;-0,000;-0,000;
20190905_070539;-0,026;9,641;-1,753;0,001;0,001;-0,000;
20190905_070539;-0,038;9,625;-1,765;0,000;0,001;-0,000;
20190905_070539;0,007;9,606;-1,755;0,001;-0,000;-0,000;
20190905_070540;-0,010;9,656;-1,750;0,000;0,002;-0,000;
20190905_070540;-0,045;9,668;-1,748;0,001;0,001;0,001;
20190905_070540;0,036;9,644;-1,731;-0,001;0,001;-0,001;
20190905_070540;0,005;9,646;-1,772;0,001;-0,000;-0,000;
20190905_070540;-0,062;9,646;-1,762;0,000;-0,000;-0,000;
20190905_070540;0,007;9,639;-1,762;0,001;-0,000;-0,001;
20190905_070540;-0,022;9,629;-1,760;0,001;-0,001;-0,001;
20190905_070540;-0,024;9,668;-1,755;0,001;0,001;-0,001;
20190905_070540;0,010;9,625;-1,736;-0,003;0,002;0,000;
20190905_070541;-0,007;9,661;-1,745;0,000;0,001;-0,002;
20190905_070541;-0,007;9,596;-1,733;0,000;-0,000;-0,002;
20190905_070541;-0,038;9,584;-1,757;0,001;0,001;-0,002;
20190905_070541;-0,072;9,608;-1,772;-0,002;0,001;-0,001;
20190905_070541;-0,026;9,629;-1,731;0,001;-0,000;0,000;
20190905_070541;0,002;9,632;-1,745;-0,002;-0,000;0,000;
20190905_070541;-0,045;9,606;-1,717;-0,001;0,001;0,000;
20190905_070541;-0,089;9,618;-1,769;0,002;-0,000;0,001;
20190905_070541;-0,038;9,610;-1,743;-0,001;0,001;0,001;
20190905_070541;-0,069;9,586;-1,748;-0,002;0,002;0,003;
20190905_070542;0,000;9,615;-1,721;0,001;-0,000;0,003;
20190905_070542;-0,115;9,589;-1,709;0,000;0,002;0,003;
20190905_070542;-0,065;9,572;-1,707;0,000;0,001;0,001;
20190905_070542;0,007;9,577;-1,753;0,001;0,001;0,003;
20190905_070542;-0,060;9,560;-1,738;-0,001;-0,000;0,003;
20190905_070542;-0,048;9,649;-1,731;0,001;0,001;0,001;
20190905_070542;-0,050;9,608;-1,753;0,000;-0,001;0,001;
20190905_070542;-0,022;9,608;-1,726;0,001;-0,000;0,004;
20190905_070542;-0,031;9,606;-1,760;0,000;-0,001;0,001;
20190905_070543;-0,024;9,567;-1,743;0,001;-0,001;0,000;
20190905_070543;-0,012;9,601;-1,738;-0,001;-0,000;0,000;
20190905_070543;-0,012;9,618;-1,748;0,000;-0,001;0,001;
20190905_070543;-0,017;9,579;-1,719;-0,001;-0,001;0,001;
20190905_070543;-0,036;9,598;-1,714;-0,002;-0,001;0,000;
20190905_070543;-0,077;9,565;-1,700;-0,003;-0,001;0,000;
20190905_070543;-0,093;9,572;-1,714;-0,001;-0,001;0,000;
20190905_070543;-0,026;9,558;-1,738;0,000;-0,001;-0,001;
20190905_070543;-0,031;9,524;-1,709;0,000;-0,001;-0,001;
20190905_070543;-0,065;9,574;-1,738;0,001;-0,001;-0,002;
20190905_070544;-0,038;9,567;-1,760;-0,002;-0,001;-0,002;
20190905_070544;-0,002;9,553;-1,743;0,001;-0,001;-0,002;
20190905_070544;-0,029;9,598;-1,741;-0,001;-0,000;-0,002;
20190905_070544;0,005;9,591;-1,736;0,000;-0,000;-0,002;
20190905_070544;0,045;9,579;-1,717;0,000;-0,001;-0,003;
20190905_070544;-0,005;9,543;-1,757;-0,001;-0,001;-0,003;
20190905_070544;0,043;9,591;-1,745;0,000;-0,001;-0,003;
20190905_070544;-0,010;9,574;-1,748;0,000;-0,000;-0,003;
20190905_070544;-0,005;9,594;-1,726;-0,002;-0,001;-0,003;
20190905_070545;0,019;9,613;-1,724;0,000;-0,000;-0,004;
20190905_070545;-0,005;9,536;-1,712;-0,002;-0,002;-0,004;
20190905_070545;-0,019;9,529;-1,721;0,002;-0,000;-0,004;
20190905_070545;-0,050;9,562;-1,753;-0,002;0,001;-0,003;
20190905_070545;0,000;9,591;-1,731;-0,001;-0,001;-0,002;
20190905_070545;-0,026;9,577;-1,733;0,000;-0,000;-0,003;
20190905_070545;-0,014;9,572;-1,705;-0,003;0,001;-0,002;
20190905_070545;-0,067;9,574;-1,741;0,001;0,001;-0,001;
20190905_070545;0,014;9,543;-1,724;0,002;0,002;0,000;
20190905_070546;-0,022;9,555;-1,674;0,001;0,002;0,000;
20190905_070546;0,010;9,574;-1,717;0,001;0,002;0,000;
20190905_070546;-0,034;9,531;-1,697;-0,003;0,002;0,000;
20190905_070546;-0,036;9,543;-1,760;0,001;0,002;0,001;
20190905_070546;-0,005;9,534;-1,733;-0,000;0,002;0,001;
20190905_070546;-0,065;9,541;-1,700;-0,000;0,001;0,001;
20190905_070546;-0,074;9,601;-1,750;-0,000;0,001;0,002;
20190905_070546;-0,029;9,546;-1,714;0,002;0,002;0,002;
20190905_070546;-0,057;9,553;-1,750;0,001;0,001;0,002;
20190905_070546;-0,019;9,572;-1,717;-0,003;0,001;0,002;
20190905_070547;-0,053;9,538;-1,719;-0,003;-0,001;0,004;
20190905_070547;-0,077;9,589;-1,721;0,003;-0,001;0,003;
20190905_070547;0,024;9,524;-1,741;-0,000;0,001;0,003;
20190905_070547;-0,067;9,579;-1,743;0,001;-0,001;0,003;
20190905_070547;-0,012;9,510;-1,724;0,001;0,001;0,003;
20190905_070547;-0,045;9,558;-1,736;0,002;0,001;0,003;
20190905_070547;-0,045;9,538;-1,743;-0,000;-0,001;0,003;
20190905_070547;-0,057;9,529;-1,681;-0,000;0,001;0,003;
20190905_070547;-0,086;9,582;-1,741;0,001;-0,001;0,003;
20190905_070548;-0,069;9,574;-1,731;0,002;-0,001;0,002;
20190905_070548;-0,026;9,579;-1,755;0,004;-0,001;0,003;
20190905_070548;-0,048;9,565;-1,750;0,002;0,001;0,002;
20190905_070548;-0,072;9,596;-1,733;0,002;-0,001;0,001;
20190905_070548;0,017;9,627;-1,738;0,003;-0,001;0,002;
20190905_070548;-0,041;9,603;-1,755;-0,000;-0,002;0,001;
20190905_070548;-0,045;9,641;-1,755;0,003;-0,001;0,000;
20190905_070548;0,012;9,596;-1,753;0,003;-0,002;0,000;
20190905_070548;-0,036;9,637;-1,738;-0,000;-0,002;0,000;
20190905_070548;0,024;9,665;-1,721;0,001;-0,002;-0,001;
20190905_070549;-0,038;9,639;-1,762;0,002;-0,002;-0,002;
20190905_070549;-0,048;9,594;-1,769;0,002;-0,002;-0,001;
20190905_070549;0,048;9,589;-1,745;-0,000;-0,002;-0,002;
20190905_070549;-0,053;9,620;-1,741;-0,000;-0,002;-0,002;
20190905_070549;0,019;9,579;-1,788;0,003;-0,001;-0,001;
20190905_070549;0,012;9,606;-1,731;-0,000;-0,001;-0,003;
20190905_070549;-0,002;9,579;-1,741;0,002;-0,001;-0,003;
20190905_070549;-0,038;9,538;-1,736;-0,002;-0,001;-0,003;
20190905_070549;0,022;9,584;-1,736;-0,000;-0,002;-0,003;
20190905_070550;-0,050;9,582;-1,765;-0,000;-0,002;-0,003;
20190905_070550;-0,012;9,577;-1,731;-0,002;-0,001;-0,003;
20190905_070550;-0,053;9,560;-1,745;-0,000;-0,001;-0,002;
20190905_070550;0,007;9,606;-1,767;-0,002;-0,001;-0,002;
20190905_070550;-0,057;9,550;-1,741;-0,002;-0,001;-0,002;
20190905_070550;0,000;9,567;-1,707;-0,000;-0,001;0,000;
20190905_070550;-0,043;9,601;-1,717;0,001;0,001;0,000;
20190905_070550;-0,048;9,546;-1,736;-0,002;0,002;0,000;
20190905_070550;-0,005;9,565;-1,738;-0,001;0,000;0,001;
20190905_070550;-0,115;9,558;-1,724;-0,003;0,002;0,002;
20190905_070551;-0,034;9,584;-1,757;0,001;0,001;0,002;
20190905_070551;-0,067;9,531;-1,743;-0,002;0,001;0,003;
20190905_070551;0,000;9,574;-1,729;0,002;0,002;0,006;
20190905_070551;-0,041;9,529;-1,733;-0,001;0,001;0,005;
20190905_070551;-0,081;9,538;-1,765;0,000;0,002;0,005;
20190905_070551;-0,002;9,529;-1,705;-0,001;0,001;0,006;
20190905_070551;-0,034;9,548;-1,726;-0,002;0,001;0,007;
20190905_070551;-0,065;9,567;-1,743;-0,002;0,001;0,005;
20190905_070551;-0,062;9,538;-1,760;0,001;0,001;0,006;
20190905_070552;-0,065;9,579;-1,724;-0,001;0,001;0,006;
20190905_070552;-0,062;9,529;-1,733;-0,001;0,002;0,005;
20190905_070552;-0,081;9,512;-1,731;-0,001;0,001;0,006;
20190905_070552;0,017;9,536;-1,765;0,001;0,001;0,006;
20190905_070552;-0,050;9,534;-1,731;-0,003;0,002;0,005;
20190905_070552;-0,014;9,546;-1,762;0,001;-0,001;0,003;
20190905_070552;-0,057;9,510;-1,733;-0,002;0,001;0,005;
20190905_070552;-0,029;9,558;-1,721;0,002;0,001;0,003;
20190905_070552;0,002;9,519;-1,721;-0,003;0,000;0,003;
20190905_070552;-0,014;9,567;-1,733;0,001;0,001;0,003;
20190905_070553;0,002;9,534;-1,738;0,001;0,000;0,003;
20190905_070553;0,022;9,553;-1,750;-0,001;-0,001;0,002;
20190905_070553;0,000;9,572;-1,755;0,001;-0,001;0,002;
20190905_070553;0,017;9,606;-1,719;0,001;0,000;0,002;
20190905_070553;-0,062;9,620;-1,781;-0,001;0,000;0,000;
20190905_070553;0,010;9,610;-1,774;-0,001;-0,001;0,001;
20190905_070553;-0,026;9,627;-1,767;0,001;0,000;-0,001;
20190905_070553;0,007;9,637;-1,769;0,000;0,000;-0,001;
20190905_070553;-0,002;9,625;-1,793;0,002;0,000;-0,001;
20190905_070554;-0,019;9,625;-1,755;-0,002;0,000;-0,001;
20190905_070554;-0,081;9,644;-1,781;0,003;0,000;0,000;
20190905_070554;0,012;9,651;-1,772;0,000;0,000;0,000;
20190905_070554;-0,031;9,682;-1,781;0,003;0,001;0,000;
20190905_070554;0,031;9,701;-1,769;-0,001;0,001;0,000;
20190905_070554;-0,022;9,718;-1,772;0,001;0,000;0,001;
20190905_070554;-0,017;9,723;-1,824;0,002;0,002;0,001;
20190905_070554;0,019;9,723;-1,765;0,001;0,001;0,001;
20190905_070554;-0,012;9,711;-1,781;0,001;0,002;0,001;
20190905_070554;-0,024;9,682;-1,784;0,001;0,001;0,003;
20190905_070555;0,038;9,716;-1,808;0,000;0,001;0,002;
20190905_070555;-0,031;9,706;-1,798;0,001;0,002;0,003;
20190905_070555;-0,012;9,680;-1,796;-0,001;0,001;0,005;
20190905_070555;-0,029;9,668;-1,769;0,000;0,003;0,005;
20190905_070555;-0,043;9,653;-1,798;-0,001;0,002;0,005;
20190905_070555;-0,014;9,632;-1,779;-0,001;0,003;0,005;
20190905_070555;0,014;9,658;-1,796;0,000;0,002;0,005;
20190905_070555;-0,036;9,644;-1,772;-0,000;0,003;0,003;
20190905_070555;-0,060;9,596;-1,769;0,001;0,003;0,004;
20190905_070556;-0,014;9,620;-1,769;-0,001;0,001;0,004;
20190905_070556;-0,034;9,558;-1,741;0,001;0,001;0,003;
20190905_070556;-0,010;9,594;-1,760;-0,000;0,001;0,003;
20190905_070556;-0,007;9,574;-1,765;-0,000;0,003;0,003;
20190905_070556;-0,036;9,572;-1,750;-0,001;0,001;0,003;
20190905_070556;-0,041;9,555;-1,772;-0,001;0,000;0,004;
20190905_070556;-0,007;9,560;-1,750;-0,001;0,001;0,004;
20190905_070556;-0,074;9,527;-1,769;-0,002;0,000;0,003;
20190905_070556;-0,074;9,574;-1,709;-0,002;0,001;0,002;
20190905_070556;-0,007;9,589;-1,750;-0,000;0,003;0,004;
20190905_070557;-0,045;9,553;-1,762;0,001;0,001;0,004;
20190905_070557;0,014;9,577;-1,750;-0,000;0,000;0,003;
20190905_070557;-0,053;9,591;-1,755;-0,001;0,001;0,003;
20190905_070557;-0,010;9,582;-1,765;-0,000;0,000;0,002;
20190905_070557;-0,026;9,548;-1,777;-0,002;0,000;0,002;
20190905_070557;-0,038;9,562;-1,757;-0,002;0,001;0,002;
20190905_070557;0,005;9,553;-1,736;-0,000;0,000;0,002;
20190905_070557;0,002;9,562;-1,760;-0,002;0,001;0,002;
20190905_070557;-0,026;9,582;-1,719;-0,002;0,000;0,001;
20190905_070558;0,012;9,579;-1,765;0,001;0,000;0,001;
20190905_070558;-0,084;9,538;-1,753;-0,002;0,001;0,000;
20190905_070558;-0,014;9,562;-1,760;-0,001;0,000;0,000;
20190905_070558;-0,024;9,500;-1,733;-0,002;0,000;0,001;
20190905_070558;-0,010;9,503;-1,774;-0,001;0,000;-0,001;
20190905_070558;-0,053;9,570;-1,738;-0,000;0,000;-0,002;
20190905_070558;0,010;9,531;-1,760;-0,003;-0,001;-0,001;
20190905_070558;0,000;9,524;-1,748;-0,001;0,000;-0,001;
20190905_070558;-0,012;9,519;-1,731;-0,000;-0,001;-0,001;
20190905_070559;-0,012;9,543;-1,769;-0,001;0,000;-0,001;
20190905_070559;-0,012;9,531;-1,714;-0,001;0,000;-0,001;
20190905_070559;-0,029;9,529;-1,774;-0,002;0,001;-0,001;
20190905_070559;-0,043;9,548;-1,741;-0,001;0,001;-0,002;
20190905_070559;-0,045;9,572;-1,748;0,001;0,003;-0,001;
20190905_070559;0,048;9,536;-1,762;-0,002;0,000;-0,001;
20190905_070559;0,022;9,510;-1,800;0,001;0,001;-0,001;
20190905_070559;-0,007;9,515;-1,760;-0,001;0,001;-0,001;
20190905_070559;0,005;9,522;-1,717;-0,000;0,001;-0,001;
20190905_070559;-0,002;9,517;-1,772;-0,003;-0,001;-0,002;
20190905_070600;-0,019;9,503;-1,726;-0,002;0,001;-0,001;
20190905_070600;-0,024;9,577;-1,733;-0,000;-0,001;-0,001;
20190905_070600;-0,022;9,546;-1,741;-0,003;0,001;-0,001;
20190905_070600;-0,036;9,531;-1,717;-0,001;0,000;0,001;
20190905_070600;-0,005;9,550;-1,717;-0,002;0,001;0,001;
20190905_070600;-0,007;9,515;-1,743;-0,001;0,003;0,000;
20190905_070600;-0,050;9,536;-1,765;-0,000;0,001;0,001;
20190905_070600;-0,036;9,550;-1,760;-0,001;0,000;0,003;
20190905_070600;0,005;9,517;-1,726;-0,000;0,002;0,002;
20190905_070600;-0,057;9,543;-1,755;-0,000;0,001;0,002;
20190905_070601;0,045;9,536;-1,724;-0,001;0,001;0,003;
20190905_070601;-0,005;9,584;-1,741;-0,001;0,002;0,002;
20190905_070601;-0,022;9,567;-1,729;-0,000;0,001;0,003;
20190905_070601;-0,045;9,553;-1,748;-0,000;0,001;0,003;
20190905_070601;-0,057;9,558;-1,762;0,002;0,001;0,003;
20190905_070601;-0,022;9,567;-1,745;0,001;0,003;0,004;
20190905_070601;-0,060;9,560;-1,760;0,002;-0,000;0,002;
20190905_070601;-0,065;9,565;-1,772;0,001;0,001;0,004;
20190905_070601;-0,057;9,574;-1,762;-0,000;0,001;0,004;
20190905_070602;-0,036;9,565;-1,753;0,002;0,002;0,004;
20190905_070602;-0,041;9,550;-1,769;0,002;0,001;0,004;
20190905_070602;-0,024;9,582;-1,750;-0,000;0,002;0,004;
20190905_070602;-0,050;9,570;-1,743;0,001;0,001;0,004;
20190905_070602;-0,045;9,548;-1,767;-0,000;0,002;0,003;
20190905_070602;-0,045;9,608;-1,762;0,003;0,001;0,003;
20190905_070602;0,034;9,577;-1,777;-0,001;0,001;0,005;
20190905_070602;-0,091;9,622;-1,788;0,002;0,001;0,004;
20190905_070602;-0,005;9,558;-1,779;0,002;0,001;0,004;
20190905_070602;-0,024;9,550;-1,786;0,002;0,001;0,004;
20190905_070603;0,026;9,584;-1,815;0,001;-0,000;0,005;
20190905_070603;-0,022;9,594;-1,815;0,002;0,002;0,003;
20190905_070603;-0,002;9,668;-1,853;0,004;0,001;0,002;
20190905_070603;-0,012;9,618;-1,858;0,002;-0,000;0,003;
20190905_070603;-0,031;9,603;-1,872;-0,000;-0,001;0,004;
20190905_070603;0,029;9,606;-1,918;0,001;0,001;0,003;
20190905_070603;-0,048;9,634;-1,908;0,002;0,001;0,003;
20190905_070603;0,005;9,670;-1,925;0,002;-0,000;0,002;
20190905_070603;-0,017;9,586;-1,987;-0,001;0,001;0,003;
20190905_070604;-0,005;9,620;-1,980;0,004;-0,000;0,001;
20190905_070604;-0,077;9,589;-1,956;-0,001;-0,000;0,001;
20190905_070604;-0,002;9,618;-1,966;-0,001;-0,000;-0,001;
20190905_070604;-0,017;9,582;-1,966;-0,002;-0,000;-0,002;
20190905_070604;-0,057;9,560;-1,963;-0,000;-0,001;-0,003;
20190905_070604;0,019;9,550;-1,946;-0,002;-0,001;-0,002;
20190905_070604;0,010;9,531;-1,961;-0,001;0,001;-0,002;
20190905_070604;0,005;9,527;-1,978;-0,000;0,001;-0,002;
20190905_070604;0,019;9,555;-1,966;-0,000;0,001;-0,004;
20190905_070605;-0,017;9,510;-1,987;-0,002;-0,000;-0,004;
20190905_070605;0,012;9,467;-1,946;-0,002;0,001;-0,003;
20190905_070605;-0,017;9,541;-1,946;0,001;0,001;-0,002;
20190905_070605;0,012;9,493;-1,927;-0,001;-0,000;-0,002;
20190905_070605;-0,007;9,467;-2,018;-0,000;0,001;-0,002;
20190905_070605;0,000;9,467;-1,954;-0,000;0,001;-0,002;
20190905_070605;0,007;9,483;-1,958;0,001;0,001;-0,001;
20190905_070605;-0,012;9,467;-1,966;-0,002;0,001;-0,002;
20190905_070605;-0,031;9,455;-1,987;0,001;0,002;-0,001;
20190905_070605;-0,005;9,488;-1,980;-0,000;0,001;-0,001;
20190905_070606;-0,034;9,481;-1,975;0,001;0,000;-0,001;
20190905_070606;-0,026;9,498;-1,990;-0,000;0,001;0,000;
20190905_070606;-0,048;9,512;-1,992;0,001;-0,001;0,001;
20190905_070606;-0,062;9,519;-1,958;-0,003;0,000;0,001;
20190905_070606;-0,081;9,495;-2,002;0,002;0,001;0,000;
20190905_070606;0,000;9,524;-1,994;-0,001;0,000;0,001;
20190905_070606;-0,053;9,507;-1,956;0,001;0,001;0,001;
20190905_070606;-0,069;9,507;-1,951;-0,001;0,001;0,001;
20190905_070606;-0,041;9,500;-2,004;-0,000;0,000;0,001;
20190905_070607;-0,048;9,491;-1,978;0,001;0,001;0,003;
20190905_070607;-0,014;9,500;-1,978;-0,001;0,001;0,000;
20190905_070607;-0,031;9,483;-1,997;-0,000;-0,001;0,001;
20190905_070607;-0,005;9,507;-1,949;-0,006;-0,001;0,001;
20190905_070607;-0,029;9,483;-1,982;0,002;-0,002;-0,001;
20190905_070607;-0,057;9,548;-1,999;0,002;-0,001;0,000;
20190905_070607;0,062;9,524;-1,980;0,001;-0,001;-0,001;
20190905_070607;-0,012;9,505;-1,927;-0,000;-0,002;-0,002;
20190905_070607;-0,055;9,493;-1,990;0,001;-0,003;-0,002;
20190905_070607;-0,024;9,507;-1,949;0,005;-0,001;-0,002;
20190905_070608;-0,031;9,536;-1,999;0,002;-0,004;-0,004;
20190905_070608;-0,055;9,522;-1,937;-0,001;-0,002;-0,003;
20190905_070608;-0,017;9,543;-1,987;0,003;-0,001;-0,003;
20190905_070608;-0,026;9,515;-1,970;-0,010;0,001;-0,003;
20190905_070608;-0,041;9,498;-1,958;-0,003;-0,001;-0,004;
20190905_070608;0,002;9,488;-2,030;0,002;-0,001;-0,005;
20190905_070608;-0,065;9,527;-1,978;-0,003;-0,001;-0,004;
20190905_070608;-0,012;9,527;-2,011;0,003;-0,001;-0,005;
20190905_070608;0,005;9,512;-1,990;-0,004;-0,002;-0,006;
20190905_070608;0,012;9,493;-1,975;0,001;0,000;-0,006;
20190905_070609;-0,010;9,562;-1,975;-0,001;-0,001;-0,005;
20190905_070609;0,036;9,488;-1,970;0,001;-0,002;-0,006;
20190905_070609;-0,022;9,510;-1,978;0,001;0,000;-0,005;
20190905_070609;0,005;9,512;-1,954;-0,000;0,000;-0,005;
20190905_070609;0,000;9,510;-2,016;0,004;-0,001;-0,005;
20190905_070609;0,000;9,529;-1,942;-0,000;0,000;-0,003;
20190905_070609;-0,034;9,522;-1,975;-0,000;0,001;-0,004;
20190905_070609;-0,053;9,500;-2,021;-0,001;-0,001;-0,003;
20190905_070609;-0,043;9,524;-1,970;-0,003;-0,001;-0,003;
20190905_070610;-0,069;9,536;-2,004;0,001;0,001;-0,003;
20190905_070610;0,019;9,505;-1,997;-0,000;-0,001;-0,003;
20190905_070610;-0,043;9,503;-1,975;0,001;0,000;-0,003;
20190905_070610;-0,024;9,522;-1,968;-0,001;0,001;-0,002;
20190905_070610;0,012;9,572;-1,949;0,001;0,000;-0,002;
20190905_070610;-0,062;9,519;-1,987;0,002;-0,001;-0,003;
20190905_070610;-0,022;9,529;-1,970;-0,001;0,000;-0,002;
20190905_070610;-0,024;9,512;-2,014;0,001;0,000;-0,003;
20190905_070610;-0,113;9,560;-2,004;-0,001;-0,001;-0,002;
20190905_070610;0,019;9,570;-1,990;0,001;0,000;-0,002;
20190905_070611;-0,012;9,558;-2,014;0,001;-0,001;0,001;
20190905_070611;-0,002;9,553;-2,009;-0,002;0,001;0,001;
20190905_070611;-0,043;9,586;-1,975;0,001;0,002;0,001;
20190905_070611;-0,067;9,538;-1,985;-0,000;-0,000;0,001;
20190905_070611;-0,041;9,527;-1,987;-0,000;0,001;0,001;
20190905_070611;0,019;9,527;-1,942;-0,002;0,001;0,002;
20190905_070611;-0,045;9,522;-1,980;0,003;-0,000;0,001;
20190905_070611;-0,007;9,505;-1,987;0,001;-0,000;0,001;
20190905_070611;-0,026;9,519;-1,990;-0,001;0,001;0,001;
20190905_070612;-0,010;9,505;-2,011;0,001;-0,000;0,001;
20190905_070612;0,005;9,481;-1,992;0,002;0,001;0,001;
20190905_070612;-0,036;9,498;-1,990;0,002;0,001;0,000;
20190905_070612;-0,041;9,531;-1,973;0,001;-0,000;0,000;
20190905_070612;-0,012;9,476;-1,990;0,002;-0,001;0,000;
20190905_070612;-0,012;9,562;-1,946;-0,002;-0,000;0,001;
20190905_070612;0,014;9,579;-1,987;-0,002;0,001;-0,001;
20190905_070612;-0,019;9,560;-1,949;-0,001;-0,001;0,000;
20190905_070612;-0,012;9,565;-1,958;0,001;-0,000;-0,001;
20190905_070612;-0,005;9,584;-2,014;0,001;-0,000;-0,001;
20190905_070613;0,022;9,570;-2,004;-0,000;0,001;0,000;
20190905_070613;-0,022;9,596;-2,009;-0,000;-0,001;-0,001;
20190905_070613;0,005;9,601;-2,004;0,001;-0,000;0,000;
20190905_070613;-0,034;9,594;-2,006;-0,002;-0,000;0,000;
20190905_070613;0,002;9,649;-1,990;0,001;0,001;0,000;
20190905_070613;-0,014;9,625;-1,968;0,001;-0,000;-0,001;
20190905_070613;-0,074;9,601;-1,939;-0,001;-0,001;-0,001;
20190905_070613;0,041;9,606;-2,030;0,002;-0,001;-0,002;
20190905_070613;-0,002;9,606;-1,987;-0,002;-0,000;-0,003;
20190905_070614;-0,034;9,608;-1,992;-0,000;-0,000;-0,002;
20190905_070614;0,057;9,586;-1,973;-0,000;-0,001;-0,003;
20190905_070614;0,010;9,584;-1,999;-0,005;-0,000;-0,003;
20190905_070614;0,045;9,574;-2,014;-0,000;-0,001;-0,004;
20190905_070614;0,045;9,613;-1,968;-0,001;-0,000;-0,003;
20190905_070614;-0,007;9,560;-1,963;0,001;0,002;-0,004;
20190905_070614;-0,038;9,548;-1,975;-0,002;-0,000;-0,003;
20190905_070614;0,041;9,567;-1,990;-0,002;-0,000;-0,004;
20190905_070614;-0,041;9,536;-1,963;0,001;-0,002;-0,003;
20190905_070614;-0,007;9,572;-1,944;-0,001;-0,003;-0,003;
20190905_070615;-0,026;9,529;-1,992;-0,000;-0,001;-0,003;
20190905_070615;-0,022;9,543;-1,966;-0,000;-0,000;-0,004;
20190905_070615;-0,041;9,531;-1,978;-0,000;-0,000;-0,002;
20190905_070615;-0,007;9,546;-1,963;-0,000;0,001;-0,002;
20190905_070615;-0,022;9,483;-1,968;-0,000;-0,000;-0,001;
20190905_070615;-0,005;9,500;-1,946;0,003;-0,000;-0,001;
20190905_070615;0,014;9,560;-1,956;-0,002;-0,001;-0,001;
20190905_070615;-0,041;9,527;-1,975;-0,000;-0,000;-0,001;
20190905_070615;-0,055;9,517;-1,966;-0,001;0,001;0,000;
20190905_070616;-0,007;9,579;-1,944;0,000;0,001;-0,000;
20190905_070616;0,014;9,529;-1,961;0,000;0,000;0,001;
20190905_070616;-0,026;9,512;-1,939;0,000;0,000;0,001;
20190905_070616;-0,024;9,570;-1,990;0,001;0,000;0,002;
20190905_070616;-0,014;9,534;-1,939;-0,001;0,001;0,001;
20190905_070616;-0,031;9,524;-1,963;-0,001;0,000;0,002;
20190905_070616;-0,043;9,574;-1,970;0,000;0,000;0,001;
20190905_070616;-0,005;9,577;-1,970;0,001;0,001;0,002;
20190905_070616;-0,029;9,534;-1,918;0,001;-0,002;0,002;
20190905_070616;-0,022;9,565;-1,978;-0,002;-0,001;0,002;
20190905_070617;-0,077;9,550;-1,925;0,000;0,001;0,003;
20190905_070617;-0,007;9,538;-1,978;0,001;-0,001;0,003;
20190905_070617;-0,062;9,550;-1,954;-0,003;-0,002;0,004;
20190905_070617;0,019;9,562;-1,975;-0,001;-0,001;0,003;
20190905_070617;-0,072;9,558;-1,944;-0,002;0,000;0,003;
20190905_070617;-0,084;9,598;-1,966;0,001;0,000;0,005;
20190905_070617;0,000;9,550;-1,961;-0,001;0,000;0,004;
20190905_070617;0,000;9,507;-1,966;-0,001;0,000;0,005;
20190905_070617;-0,079;9,536;-1,982;0,001;0,000;0,004;
20190905_070618;-0,007;9,555;-1,963;-0,001;0,001;0,006;
20190905_070618;-0,057;9,570;-1,942;0,000;0,000;0,005;
20190905_070618;-0,014;9,531;-1,958;-0,002;0,000;0,004;
20190905_070618;-0,072;9,519;-1,932;0,000;-0,001;0,004;
20190905_070618;0,024;9,479;-1,958;0,000;-0,001;0,004;
20190905_070618;0,000;9,515;-1,937;0,000;-0,001;0,002;
20190905_070618;-0,024;9,469;-1,963;0,000;-0,001;0,002;
20190905_070618;0,005;9,471;-1,961;0,000;0,000;0,002;
20190905_070618;-0,026;9,469;-1,913;-0,002;0,001;0,002;
20190905_070618;-0,029;9,419;-1,942;0,000;0,000;0,001;
20190905_070619;-0,007;9,457;-1,946;0,002;-0,001;0,001;
20190905_070619;-0,029;9,402;-1,930;0,001;0,000;0,001;
20190905_070619;-0,029;9,402;-1,973;0,001;-0,001;0,001;
20190905_070619;-0,029;9,450;-1,951;0,001;-0,001;-0,000;
20190905_070619;-0,022;9,445;-1,935;0,002;-0,002;-0,000;
20190905_070619;-0,017;9,467;-1,961;0,000;-0,001;-0,000;
20190905_070619;-0,014;9,471;-1,935;0,001;-0,001;0,001;
20190905_070619;0,007;9,503;-1,913;0,001;-0,001;0,002;
20190905_070619;0,010;9,481;-1,987;0,004;-0,001;0,002;
20190905_070620;0,024;9,517;-1,990;0,001;0,000;0,003;
20190905_070620;-0,024;9,553;-1,956;0,002;0,001;0,002;
20190905_070620;-0,017;9,582;-1,966;0,002;-0,001;0,003;
20190905_070620;-0,010;9,574;-1,990;0,002;0,000;0,003;
20190905_070620;0,014;9,625;-1,949;-0,002;-0,001;0,002;
20190905_070620;0,019;9,625;-1,982;0,002;0,000;0,002;
20190905_070620;-0,022;9,572;-1,982;-0,001;0,000;0,004;
20190905_070620;-0,007;9,584;-1,992;0,001;0,000;0,003;
20190905_070620;0,024;9,570;-1,958;-0,003;0,001;0,004;
20190905_070620;-0,017;9,560;-1,968;0,000;0,000;0,003;
20190905_070621;0,007;9,522;-1,949;-0,003;-0,001;0,003;
20190905_070621;0,005;9,555;-1,978;-0,000;0,000;0,000;
20190905_070621;0,022;9,488;-1,937;-0,005;-0,001;0,002;
20190905_070621;0,007;9,426;-1,978;0,002;0,000;0,003;
20190905_070621;-0,024;9,505;-1,927;-0,000;0,001;0,004;
20190905_070621;-0,010;9,455;-1,879;-0,002;0,001;0,005;
20190905_070621;-0,038;9,416;-1,911;-0,002;0,001;0,006;
20190905_070621;0,019;9,428;-1,918;-0,000;0,003;0,007;
20190905_070621;-0,093;9,428;-1,879;-0,000;0,003;0,008;
20190905_070622;-0,024;9,378;-1,949;-0,000;0,003;0,008;
20190905_070622;-0,081;9,392;-1,925;0,001;0,003;0,006;
20190905_070622;0,050;9,407;-1,923;0,002;0,003;0,006;
20190905_070622;-0,029;9,412;-1,920;-0,001;0,003;0,006;
20190905_070622;-0,043;9,464;-1,961;0,001;0,003;0,006;
20190905_070622;-0,031;9,428;-1,927;-0,001;0,003;0,006;
20190905_070622;-0,041;9,483;-1,925;0,002;0,003;0,006;
20190905_070622;-0,038;9,448;-1,942;-0,002;0,001;0,006;
20190905_070622;-0,108;9,491;-1,935;0,001;0,001;0,006;
20190905_070623;-0,012;9,519;-1,982;0,001;0,003;0,007;
20190905_070623;-0,098;9,471;-1,961;-0,002;0,001;0,008;
20190905_070623;-0,024;9,505;-1,930;-0,000;0,001;0,007;
20190905_070623;-0,050;9,524;-1,970;-0,000;0,003;0,007;
20190905_070623;-0,093;9,510;-1,970;-0,000;0,000;0,007;
20190905_070623;-0,045;9,483;-1,946;-0,000;-0,001;0,006;
20190905_070623;-0,012;9,519;-1,961;-0,003;0,000;0,005;
20190905_070623;0,019;9,522;-1,942;-0,001;0,000;0,003;
20190905_070623;-0,024;9,479;-1,944;-0,000;-0,001;0,003;
20190905_070623;0,002;9,524;-1,949;0,003;-0,001;0,002;
20190905_070624;-0,002;9,529;-1,925;-0,001;-0,002;0,000;
20190905_070624;0,026;9,471;-1,899;-0,001;-0,002;-0,002;
20190905_070624;0,026;9,474;-1,853;-0,000;-0,002;-0,004;
20190905_070624;0,000;9,464;-1,867;-0,001;-0,002;-0,004;
20190905_070624;-0,019;9,479;-1,858;-0,000;-0,001;-0,003;
20190905_070624;-0,026;9,505;-1,822;-0,001;0,000;-0,002;
20190905_070624;0,014;9,536;-1,836;0,002;-0,001;-0,002;
20190905_070624;-0,045;9,527;-1,817;0,001;0,000;0,000;
20190905_070624;-0,043;9,527;-1,832;-0,000;0,001;0,002;
20190905_070625;-0,026;9,550;-1,824;0,002;0,001;0,004;
20190905_070625;0,010;9,543;-1,810;0,003;0,003;0,004;
20190905_070625;-0,072;9,558;-1,822;0,001;0,003;0,005;
20190905_070625;-0,045;9,591;-1,800;0,001;0,000;0,006;
20190905_070625;-0,065;9,572;-1,781;0,002;0,004;0,008;
20190905_070625;-0,062;9,622;-1,781;0,001;0,003;0,008;
20190905_070625;-0,081;9,582;-1,769;0,001;0,001;0,008;
20190905_070625;-0,067;9,596;-1,784;-0,000;0,003;0,009;
20190905_070625;-0,091;9,562;-1,748;0,001;0,004;0,009;
20190905_070625;-0,108;9,572;-1,774;0,002;0,003;0,011;
20190905_070626;-0,069;9,567;-1,762;0,001;0,004;0,012;
20190905_070626;-0,101;9,584;-1,700;-0,000;0,002;0,008;
20190905_070626;-0,041;9,560;-1,762;0,001;0,003;0,009;
20190905_070626;-0,084;9,577;-1,741;0,002;0,002;0,009;
20190905_070626;-0,065;9,524;-1,733;0,002;0,001;0,009;
20190905_070626;-0,065;9,543;-1,717;-0,000;0,001;0,010;
20190905_070626;-0,055;9,534;-1,731;0,002;-0,000;0,008;
20190905_070626;-0,034;9,570;-1,762;-0,000;-0,000;0,007;
20190905_070626;-0,002;9,550;-1,702;-0,009;-0,000;0,006;
20190905_070627;-0,017;9,469;-1,671;-0,005;-0,002;0,003;
20190905_070627;-0,041;9,457;-1,693;0,002;-0,001;0,002;
20190905_070627;0,007;9,510;-1,721;0,005;-0,000;0,000;
20190905_070627;-0,019;9,452;-1,671;-0,004;-0,002;0,000;
20190905_070627;0,005;9,407;-1,690;0,004;-0,001;-0,002;
20190905_070627;0,014;9,436;-1,686;-0,008;-0,001;-0,002;
20190905_070627;-0,029;9,428;-1,664;-0,003;-0,001;-0,004;
20190905_070627;-0,012;9,383;-1,666;-0,003;-0,002;-0,005;
20190905_070627;0,031;9,407;-1,750;0,009;0,001;-0,006;
20190905_070627;0,026;9,354;-1,678;-0,003;-0,001;-0,006;
20190905_070628;0,005;9,407;-1,760;-0,000;-0,001;-0,007;
20190905_070628;0,017;9,297;-1,592;-0,023;-0,005;-0,005;
20190905_070628;0,036;9,383;-1,666;0,008;-0,002;-0,007;
20190905_070628;-0,010;9,364;-1,712;0,002;-0,001;-0,007;
20190905_070628;0,012;9,340;-1,669;-0,001;-0,000;-0,007;
20190905_070628;0,045;9,299;-1,650;-0,000;-0,001;-0,008;
20190905_070628;0,022;9,366;-1,669;-0,002;-0,000;-0,007;
20190905_070628;0,024;9,313;-1,662;0,001;-0,002;-0,007;
20190905_070628;-0,022;9,378;-1,683;0,002;-0,000;-0,007;
20190905_070628;0,022;9,354;-1,662;0,001;0,001;-0,006;
20190905_070629;-0,022;9,342;-1,683;-0,000;-0,000;-0,005;
20190905_070629;0,043;9,325;-1,662;-0,004;0,002;-0,004;
20190905_070629;0,036;9,383;-1,700;-0,000;0,002;-0,003;
20190905_070629;0,031;9,407;-1,671;0,001;0,003;-0,002;
20190905_070629;0,029;9,402;-1,638;-0,000;0,003;-0,001;
20190905_070629;0,010;9,371;-1,647;-0,002;0,002;0,000;
20190905_070629;-0,017;9,407;-1,693;0,001;0,002;0,001;
20190905_070629;-0,043;9,335;-1,671;-0,001;0,002;0,002;
20190905_070629;0,014;9,359;-1,678;-0,001;0,004;0,002;
20190905_070630;-0,019;9,426;-1,650;-0,001;0,004;0,003;
20190905_070630;0,000;9,373;-1,683;-0,000;0,003;0,003;
20190905_070630;-0,019;9,349;-1,674;-0,001;0,004;0,006;
20190905_070630;0,000;9,421;-1,650;-0,000;0,004;0,006;
20190905_070630;-0,053;9,390;-1,681;-0,002;0,003;0,006;
20190905_070630;0,000;9,412;-1,688;0,002;0,003;0,006;
20190905_070630;-0,055;9,404;-1,674;-0,002;0,003;0,007;
20190905_070630;-0,019;9,424;-1,654;-0,000;0,003;0,008;
20190905_070630;-0,072;9,474;-1,678;0,001;0,003;0,008;
20190905_070630;-0,057;9,457;-1,683;-0,000;0,003;0,007;
20190905_070631;-0,041;9,495;-1,693;0,001;0,003;0,008;
20190905_070631;-0,036;9,471;-1,707;-0,000;0,002;0,007;
20190905_070631;-0,045;9,474;-1,705;-0,000;0,002;0,009;
20190905_070631;-0,045;9,471;-1,669;-0,000;0,001;0,010;
20190905_070631;-0,074;9,407;-1,707;0,002;0,000;0,009;
20190905_070631;-0,002;9,428;-1,693;-0,000;0,000;0,009;
20190905_070631;-0,041;9,424;-1,697;-0,000;-0,001;0,007;
20190905_070631;-0,005;9,438;-1,688;-0,001;0,000;0,005;
20190905_070631;0,012;9,459;-1,709;0,003;-0,002;0,005;
20190905_070632;-0,019;9,438;-1,683;-0,000;-0,001;0,004;
20190905_070632;0,057;9,483;-1,705;0,001;0,000;0,004;
20190905_070632;0,041;9,424;-1,674;0,002;0,000;0,006;
20190905_070632;-0,019;9,486;-1,669;0,004;-0,001;0,003;
20190905_070632;0,072;9,541;-1,695;0,003;-0,002;-0,000;
20190905_070632;0,055;9,596;-1,695;0,001;-0,002;-0,003;
20190905_070632;0,077;9,613;-1,731;0,004;-0,002;-0,005;
20190905_070632;0,079;9,586;-1,748;0,003;-0,001;-0,006;
20190905_070632;0,043;9,586;-1,729;-0,000;0,000;-0,008;
20190905_070632;0,053;9,596;-1,707;-0,002;-0,003;-0,012;
20190905_070633;0,096;9,469;-1,688;0,003;-0,001;-0,011;
20190905_070633;-0,017;9,637;-1,733;0,004;-0,002;-0,011;
20190905_070633;0,029;9,579;-1,681;-0,003;-0,003;-0,013;
20190905_070633;0,105;9,596;-1,693;0,001;-0,002;-0,011;
20190905_070633;0,029;9,649;-1,741;0,001;0,000;-0,008;
20190905_070633;0,026;9,761;-1,760;0,008;0,000;-0,009;
20190905_070633;-0,057;9,615;-1,662;-0,005;0,002;-0,001;
20190905_070633;0,089;9,689;-1,726;0,005;0,002;-0,005;
20190905_070633;0,002;9,663;-1,707;0,004;0,001;-0,005;
20190905_070634;0,024;9,661;-1,774;0,001;0,001;-0,008;
20190905_070634;0,005;9,730;-1,769;0,010;0,001;-0,008;
20190905_070634;0,069;9,785;-1,721;-0,001;0,002;-0,007;
20190905_070634;0,014;9,857;-1,784;0,002;0,000;-0,006;
20190905_070634;0,041;9,718;-1,760;-0,001;0,001;-0,003;
20190905_070634;-0,034;9,637;-1,741;0,001;0,000;-0,004;
20190905_070634;0,000;9,685;-1,741;0,004;0,000;-0,001;
20190905_070634;-0,036;9,756;-1,745;0,002;0,002;0,005;
20190905_070634;-0,043;9,680;-1,729;0,001;0,002;0,010;
20190905_070635;0,005;9,720;-1,765;0,003;0,003;0,008;
20190905_070635;0,000;9,596;-1,714;-0,003;0,003;0,007;
20190905_070635;-0,031;9,620;-1,743;0,005;0,000;0,003;
20190905_070635;0,043;9,598;-1,709;-0,002;0,000;0,002;
20190905_070635;-0,084;9,646;-1,712;0,003;0,001;0,006;
20190905_070635;-0,098;9,677;-1,705;0,002;0,002;0,003;
20190905_070635;0,012;9,711;-1,726;-0,002;0,001;0,006;
20190905_070635;-0,096;9,759;-1,738;0,003;0,001;0,005;
20190905_070635;-0,050;9,816;-1,822;0,001;0,001;0,006;
20190905_070636;-0,053;9,821;-1,731;-0,002;0,000;0,008;
20190905_070636;-0,086;9,795;-1,767;0,004;0,001;0,006;
20190905_070636;0,024;9,687;-1,748;-0,001;0,000;0,006;
20190905_070636;-0,019;9,756;-1,781;0,001;0,000;0,005;
20190905_070636;-0,017;9,665;-1,712;-0,003;0,000;0,005;
20190905_070636;-0,041;9,692;-1,796;0,003;-0,002;-0,000;
20190905_070636;-0,029;9,586;-1,681;-0,003;-0,001;-0,000;
20190905_070636;-0,029;9,579;-1,755;0,006;-0,002;-0,003;
20190905_070636;-0,005;9,582;-1,721;-0,002;-0,001;-0,000;
20190905_070637;0,005;9,510;-1,724;0,001;-0,001;0,001;
20190905_070637;0,005;9,618;-1,681;-0,000;-0,002;-0,001;
20190905_070637;0,036;9,622;-1,705;0,002;-0,001;-0,001;
20190905_070637;-0,007;9,586;-1,676;0,001;-0,002;-0,003;
20190905_070637;0,019;9,594;-1,719;0,004;-0,001;-0,003;
20190905_070637;0,000;9,651;-1,721;-0,000;0,001;-0,005;
20190905_070637;0,000;9,618;-1,717;0,001;-0,003;-0,005;
20190905_070637;-0,012;9,615;-1,750;0,003;-0,002;-0,007;
20190905_070637;0,055;9,586;-1,719;0,001;-0,002;-0,010;
20190905_070637;-0,017;9,558;-1,705;0,001;-0,002;-0,012;
20190905_070638;-0,031;9,603;-1,755;0,004;-0,002;-0,010;
20190905_070638;0,002;9,555;-1,705;0,002;-0,001;-0,009;
20190905_070638;0,024;9,572;-1,753;0,003;-0,002;-0,008;
20190905_070638;-0,077;9,634;-1,709;0,002;-0,002;-0,011;
20190905_070638;0,026;9,498;-1,693;-0,002;-0,001;-0,006;
20190905_070638;0,002;9,603;-1,757;0,003;0,000;-0,008;
20190905_070638;-0,014;9,548;-1,714;-0,002;0,000;-0,007;
20190905_070638;-0,031;9,464;-1,707;0,002;0,001;-0,008;
20190905_070638;-0,079;9,421;-1,678;-0,000;-0,003;-0,009;
20190905_070639;-0,022;9,400;-1,674;0,004;0,002;-0,006;
20190905_070639;0,034;9,452;-1,664;0,001;0,000;-0,004;
20190905_070639;0,010;9,682;-1,800;0,011;0,000;-0,005;
20190905_070639;0,012;9,507;-1,599;-0,004;0,001;-0,007;
20190905_070639;0,024;9,558;-1,762;0,007;-0,001;-0,006;
20190905_070639;-0,053;9,627;-1,700;0,003;-0,001;-0,009;
20190905_070639;-0,050;9,594;-1,791;0,003;-0,001;-0,004;
20190905_070639;-0,017;9,567;-1,695;-0,001;0,000;-0,004;
20190905_070639;-0,038;9,560;-1,745;0,004;0,000;0,001;
20190905_070639;0,029;9,637;-1,712;0,001;0,001;0,005;
20190905_070640;-0,089;9,641;-1,688;0,002;0,001;0,005;
20190905_070640;-0,048;9,582;-1,676;-0,002;0,001;0,007;
20190905_070640;-0,084;9,615;-1,767;0,006;0,002;0,005;
20190905_070640;0,050;9,546;-1,686;-0,004;-0,001;0,006;
20190905_070640;-0,108;9,574;-1,757;0,008;0,001;0,003;
20190905_070640;0,038;9,572;-1,666;-0,004;0,002;0,003;
20190905_070640;-0,101;9,637;-1,748;0,006;-0,002;0,004;
20190905_070640;-0,038;9,589;-1,700;0,002;0,001;0,003;
20190905_070640;0,017;9,629;-1,745;0,002;-0,002;0,003;
20190905_070641;-0,120;9,565;-1,724;-0,001;-0,001;0,002;
20190905_070641;0,019;9,601;-1,762;0,004;-0,001;-0,000;
20190905_070641;-0,050;9,598;-1,678;-0,001;-0,002;0,002;
20190905_070641;-0,077;9,601;-1,738;0,001;-0,001;0,002;
20190905_070641;-0,012;9,524;-1,676;-0,002;-0,002;0,002;
20190905_070641;-0,105;9,495;-1,743;0,001;-0,003;0,002;
20190905_070641;0,048;9,584;-1,666;-0,000;-0,002;-0,001;
20190905_070641;-0,034;9,529;-1,743;-0,003;-0,003;-0,001;
20190905_070641;0,053;9,558;-1,738;0,004;-0,002;-0,007;
20190905_070641;0,050;9,491;-1,707;-0,004;-0,003;-0,005;
20190905_070642;0,000;9,515;-1,712;-0,000;-0,002;-0,008;
20190905_070642;0,036;9,481;-1,714;-0,001;-0,004;-0,006;
20190905_070642;-0,010;9,512;-1,669;-0,000;-0,003;-0,006;
20190905_070642;0,031;9,519;-1,695;-0,000;-0,003;-0,007;
20190905_070642;0,000;9,462;-1,640;-0,002;-0,003;-0,007;
20190905_070642;0,055;9,462;-1,683;0,003;-0,003;-0,006;
20190905_070642;0,055;9,536;-1,693;-0,001;-0,002;-0,009;
20190905_070642;0,050;9,610;-1,693;0,002;-0,003;-0,011;
20190905_070642;0,072;9,632;-1,676;0,002;-0,002;-0,011;
20190905_070643;0,065;9,663;-1,690;0,002;-0,002;-0,012;
20190905_070643;0,062;9,675;-1,736;0,002;-0,002;-0,009;
20190905_070643;-0,002;9,634;-1,709;0,002;0,000;-0,010;
20190905_070643;0,038;9,445;-1,755;-0,001;-0,002;-0,007;
20190905_070643;0,024;9,586;-1,709;0,007;0,001;-0,007;
20190905_070643;0,024;9,467;-1,669;-0,003;-0,002;-0,004;
20190905_070643;-0,065;9,543;-1,709;0,005;0,002;-0,001;
20190905_070643;0,086;9,464;-1,709;0,002;0,000;0,003;
20190905_070643;-0,105;9,333;-1,702;-0,002;0,001;0,007;
20190905_070643;-0,074;9,565;-1,750;0,004;0,002;0,001;
20190905_070644;-0,108;9,507;-1,669;0,002;0,001;0,006;
20190905_070644;0,086;9,577;-1,724;0,006;0,003;0,007;
20190905_070644;-0,065;9,558;-1,717;-0,003;0,000;0,006;
20190905_070644;-0,065;9,608;-1,762;0,006;0,001;0,003;
20190905_070644;0,017;9,519;-1,654;-0,002;0,000;0,004;
20190905_070644;-0,096;9,524;-1,719;0,003;-0,001;0,003;
20190905_070644;0,031;9,572;-1,731;0,002;0,002;0,007;
20190905_070644;-0,057;9,567;-1,697;0,003;0,001;0,008;
20190905_070644;-0,122;9,570;-1,741;0,001;0,000;0,008;
20190905_070645;0,050;9,603;-1,743;-0,000;0,002;0,007;
20190905_070645;-0,002;9,395;-1,676;-0,005;0,000;0,009;
20190905_070645;-0,010;9,491;-1,760;0,005;-0,001;0,003;
20190905_070645;0,019;9,562;-1,683;-0,003;-0,001;-0,000;
20190905_070645;-0,062;9,560;-1,709;-0,002;-0,005;-0,004;
20190905_070645;-0,005;9,615;-1,719;0,004;-0,001;-0,006;
20190905_070645;0,055;9,637;-1,741;-0,000;-0,003;-0,004;
20190905_070645;0,045;9,649;-1,707;0,002;-0,001;-0,001;
20190905_070645;-0,074;9,603;-1,719;-0,000;-0,002;-0,005;
20190905_070646;0,127;9,677;-1,733;0,004;0,000;-0,004;
20190905_070646;0,007;9,740;-1,738;-0,001;-0,003;-0,003;
20190905_070646;-0,029;9,768;-1,800;0,006;0,000;-0,003;
20190905_070646;-0,062;9,515;-1,554;-0,014;-0,001;-0,000;
20190905_070646;-0,098;9,409;-1,709;0,007;0,001;-0,001;
20190905_070646;0,026;9,543;-1,714;0,002;0,002;0,006;
20190905_070646;-0,077;9,620;-1,726;0,003;0,001;0,009;
20190905_070646;-0,017;9,651;-1,777;0,005;0,004;0,009;
20190905_070646;0,091;9,697;-1,714;-0,000;-0,001;0,009;
20190905_070646;-0,122;9,665;-1,709;0,004;0,001;0,006;
20190905_070647;0,010;9,541;-1,702;-0,003;-0,002;0,003;
20190905_070647;-0,060;9,704;-1,793;0,010;0,001;0,005;
20190905_070647;0,034;9,555;-1,662;-0,003;-0,001;0,005;
20190905_070647;-0,141;9,761;-1,848;0,010;0,000;0,005;
20190905_070647;-0,014;9,665;-1,724;-0,000;0,000;0,005;
20190905_070647;0,026;9,697;-1,750;0,005;0,001;0,006;
20190905_070647;-0,110;9,687;-1,743;-0,001;-0,001;0,005;
20190905_070647;-0,055;9,680;-1,781;0,004;0,002;0,002;
20190905_070647;-0,036;9,507;-1,666;-0,003;-0,001;0,005;
20190905_070648;0,026;9,704;-1,721;0,006;0,001;0,004;
20190905_070648;0,029;9,689;-1,748;-0,000;-0,001;0,005;
20190905_070648;0,089;9,759;-1,690;-0,000;0,001;0,003;
20190905_070648;-0,113;9,716;-1,781;-0,001;-0,004;0,001;
20190905_070648;0,014;9,584;-1,714;-0,003;0,002;-0,003;
20190905_070648;-0,139;9,462;-1,753;0,003;-0,007;-0,009;
20190905_070648;0,074;9,555;-1,731;0,002;0,001;-0,008;
20190905_070648;-0,026;9,594;-1,748;0,002;-0,003;-0,007;
20190905_070648;-0,002;9,641;-1,695;-0,004;0,000;-0,005;
20190905_070648;-0,017;9,515;-1,721;0,002;-0,002;-0,001;
20190905_070649;-0,002;9,397;-1,666;-0,002;-0,001;-0,000;
20190905_070649;-0,036;9,424;-1,719;0,002;-0,002;-0,005;
20190905_070649;0,041;9,704;-1,726;0,007;-0,001;-0,007;
20190905_070649;0,024;9,651;-1,736;0,001;0,000;0,001;
20190905_070649;-0,113;9,665;-1,724;0,001;-0,001;-0,003;
20190905_070649;0,007;9,558;-1,647;-0,005;-0,001;-0,001;
20190905_070649;-0,086;9,574;-1,812;0,010;-0,001;0,001;
20190905_070649;0,022;9,448;-1,654;-0,001;0,003;0,007;
20190905_070649;-0,165;9,658;-1,781;0,007;0,000;-0,001;
20190905_070649;-0,036;9,450;-1,707;-0,006;-0,001;-0,001;
20190905_070650;-0,108;9,601;-1,793;0,011;-0,002;-0,000;
20190905_070650;-0,081;9,608;-1,717;-0,003;-0,001;0,003;
20190905_070650;-0,093;9,519;-1,697;-0,002;0,002;0,008;
20190905_070650;-0,101;9,488;-1,642;-0,003;0,002;0,006;
20190905_070650;-0,038;9,608;-1,707;0,001;-0,001;0,008;
20190905_070650;0,024;9,486;-1,681;-0,004;0,001;0,009;
20190905_070650;-0,062;9,495;-1,719;0,001;-0,003;0,007;
20190905_070650;-0,029;9,527;-1,702;0,002;0,000;0,002;
20190905_070650;-0,050;9,476;-1,693;-0,003;-0,005;-0,001;
20190905_070651;-0,074;9,649;-1,714;0,005;-0,001;-0,004;
20190905_070651;0,117;9,579;-1,753;-0,000;-0,002;-0,004;
20190905_070651;-0,062;9,608;-1,731;0,001;0,000;-0,001;
20190905_070651;-0,055;9,656;-1,721;-0,001;-0,002;-0,004;
20190905_070651;0,002;9,629;-1,721;0,003;-0,001;-0,004;
20190905_070651;0,012;9,369;-1,686;-0,004;-0,003;-0,000;
20190905_070651;-0,105;9,459;-1,765;0,004;-0,001;-0,004;
20190905_070651;0,005;9,428;-1,693;-0,005;-0,002;-0,001;
20190905_070651;0,024;9,371;-1,726;-0,001;-0,001;-0,004;
20190905_070651;0,113;9,416;-1,628;-0,000;-0,003;-0,005;
20190905_070652;-0,019;9,491;-1,693;0,004;-0,003;-0,005;
20190905_070652;0,055;9,495;-1,697;0,001;-0,001;-0,006;
20190905_070652;0,074;9,668;-1,736;0,005;-0,002;-0,001;
20190905_070652;0,031;9,677;-1,731;0,002;0,000;-0,005;
20190905_070652;0,038;9,527;-1,719;0,003;-0,002;-0,012;
20190905_070652;0,005;9,304;-1,618;-0,002;-0,003;-0,012;
20190905_070652;0,113;9,570;-1,738;0,011;0,003;-0,007;
20190905_070652;-0,034;9,589;-1,666;-0,000;0,000;0,002;
20190905_070652;-0,022;9,639;-1,760;0,006;0,003;0,005;
20190905_070653;-0,055;9,500;-1,705;-0,002;0,003;0,011;
20190905_070653;-0,007;9,538;-1,693;0,001;0,003;0,012;
20190905_070653;-0,043;9,373;-1,683;0,003;0,000;0,017;
20190905_070653;-0,091;9,680;-1,812;0,008;0,006;0,012;
20190905_070653;0,055;9,505;-1,664;-0,003;-0,002;0,011;
20190905_070653;-0,050;9,629;-1,784;0,007;0,002;0,007;
20190905_070653;0,005;9,639;-1,736;-0,003;-0,001;0,004;
20190905_070653;-0,120;9,632;-1,791;0,006;-0,004;-0,001;
20190905_070653;0,074;9,653;-1,726;-0,002;0,001;-0,001;
20190905_070653;-0,084;9,476;-1,760;0,004;-0,003;0,003;
20190905_070654;-0,036;9,723;-1,760;0,005;0,002;0,005;
20190905_070654;-0,141;9,625;-1,662;-0,007;-0,001;0,008;
20190905_070654;-0,060;9,471;-1,743;0,001;0,000;0,008;
20190905_070654;-0,031;9,570;-1,741;0,001;0,002;0,008;
20190905_070654;0,098;9,357;-1,647;-0,006;-0,001;0,010;
20190905_070654;-0,101;9,345;-1,676;0,004;0,000;0,006;
20190905_070654;0,139;9,160;-1,674;-0,003;-0,001;0,011;
20190905_070654;0,019;9,292;-1,635;0,005;0,004;0,011;
20190905_070654;0,026;9,378;-1,561;-0,003;-0,002;0,007;
20190905_070654;0,060;9,649;-1,772;0,006;0,000;0,009;
20190905_070655;0,108;9,685;-1,654;-0,004;-0,001;0,008;
20190905_070655;-0,165;9,807;-1,827;0,004;-0,003;0,002;
20190905_070655;0,034;9,697;-1,654;-0,007;0,001;0,006;
20190905_070655;0,113;9,548;-1,757;0,010;0,000;0,004;
20190905_070655;-0,139;9,692;-1,599;0,001;-0,001;0,005;
20190905_070655;0,010;9,481;-1,657;-0,011;0,001;0,005;
20190905_070655;0,093;9,627;-1,750;0,005;0,002;-0,000;
20190905_070655;0,029;9,606;-1,587;-0,005;-0,003;-0,003;
20190905_070655;0,117;9,579;-1,621;-0,000;-0,001;-0,005;
20190905_070656;0,017;9,304;-1,563;-0,004;0,002;0,002;
20190905_070656;-0,014;9,445;-1,652;0,007;0,000;0,001;
20190905_070656;-0,031;9,419;-1,633;0,001;0,003;0,002;
20190905_070656;0,031;9,459;-1,614;0,004;0,003;0,003;
20190905_070656;-0,204;9,392;-1,554;-0,002;0,001;-0,000;
20190905_070656;0,084;9,421;-1,640;0,007;0,002;-0,001;
20190905_070656;-0,077;9,330;-1,640;-0,000;0,001;0,002;
20190905_070656;-0,026;9,515;-1,683;0,010;-0,001;-0,000;
20190905_070656;-0,012;9,467;-1,554;-0,003;0,004;0,006;
20190905_070656;-0,101;9,584;-1,630;0,002;0,003;0,007;
20190905_070657;-0,103;9,512;-1,592;-0,001;0,003;0,009;
20190905_070657;-0,002;9,467;-1,616;0,002;0,001;0,004;
20190905_070657;-0,093;9,491;-1,604;0,004;0,001;0,004;
20190905_070657;0,012;9,390;-1,590;-0,001;0,001;0,005;
20190905_070657;-0,120;9,634;-1,647;0,008;0,000;0,003;
20190905_070657;-0,127;9,567;-1,602;0,001;-0,001;0,002;
20190905_070657;0,014;9,589;-1,626;-0,000;-0,001;0,002;
20190905_070657;-0,074;9,598;-1,623;0,002;-0,002;0,001;
20190905_070657;-0,005;9,553;-1,623;-0,001;-0,001;0,003;
20190905_070658;0,031;9,586;-1,686;0,003;-0,001;0,002;
20190905_070658;-0,060;9,653;-1,650;0,001;0,000;0,002;
20190905_070658;0,041;9,629;-1,635;0,002;-0,001;0,001;
20190905_070658;-0,012;9,579;-1,638;0,001;-0,003;-0,000;
20190905_070658;0,077;9,589;-1,592;-0,000;-0,002;-0,000;
20190905_070658;0,043;9,692;-1,645;0,004;-0,002;-0,006;
20190905_070658;0,084;9,512;-1,621;-0,002;-0,001;-0,008;
20190905_070658;0,022;9,534;-1,688;0,005;-0,003;-0,013;
20190905_070658;0,000;9,598;-1,647;-0,000;-0,001;-0,012;
20190905_070658;0,043;9,577;-1,616;0,004;-0,002;-0,013;
20190905_070659;0,010;9,546;-1,638;0,001;-0,004;-0,012;
20190905_070659;-0,045;9,548;-1,623;0,001;-0,001;-0,011;
20190905_070659;0,036;9,570;-1,647;0,001;-0,001;-0,010;
20190905_070659;0,086;9,610;-1,638;0,004;0,001;-0,010;
20190905_070659;0,000;9,560;-1,628;-0,000;-0,002;-0,012;
20190905_070659;-0,012;9,582;-1,630;0,004;-0,001;-0,010;
20190905_070659;-0,005;9,507;-1,621;0,001;0,001;-0,007;
20190905_070659;-0,041;9,538;-1,609;0,001;0,001;-0,001;
20190905_070659;0,060;9,522;-1,642;0,005;0,003;0,004;
20190905_070659;-0,041;9,603;-1,621;0,004;0,004;0,005;
20190905_070700;-0,093;9,574;-1,642;0,003;0,002;0,004;
20190905_070700;0,022;9,574;-1,573;0,002;0,004;0,005;
20190905_070700;-0,024;9,632;-1,654;0,003;0,002;0,008;
20190905_070700;-0,127;9,615;-1,640;0,005;0,002;0,007;
20190905_070700;-0,050;9,625;-1,659;0,004;0,004;0,008;
20190905_070700;-0,115;9,737;-1,686;0,005;0,003;0,006;
20190905_070700;0,019;9,622;-1,628;-0,003;0,000;0,005;
20190905_070700;0,002;9,687;-1,695;0,004;0,002;0,003;
20190905_070700;0,012;9,572;-1,638;-0,001;0,000;0,002;
20190905_070701;-0,091;9,615;-1,662;0,002;-0,001;0,003;
20190905_070701;0,062;9,596;-1,611;-0,004;0,002;0,002;
20190905_070701;-0,031;9,529;-1,616;0,003;0,000;0,002;
20190905_070701;-0,065;9,505;-1,626;-0,001;0,000;0,003;
20190905_070701;0,005;9,519;-1,647;0,005;0,000;-0,000;
20190905_070701;-0,045;9,548;-1,587;0,001;-0,002;-0,003;
20190905_070701;-0,036;9,651;-1,635;0,003;-0,001;-0,001;
20190905_070701;-0,048;9,720;-1,595;0,003;-0,001;-0,005;
20190905_070701;0,055;9,653;-1,674;0,001;-0,002;-0,000;
20190905_070701;0,072;9,594;-1,616;-0,000;0,001;-0,001;
20190905_070702;-0,055;9,613;-1,688;0,002;-0,002;-0,004;
20190905_070702;-0,045;9,500;-1,580;-0,003;0,000;-0,006;
20190905_070702;0,022;9,541;-1,652;0,005;-0,003;-0,009;
20190905_070702;-0,093;9,481;-1,592;-0,001;-0,002;-0,004;
20190905_070702;0,005;9,634;-1,697;0,010;0,000;-0,004;
20190905_070702;0,014;9,668;-1,642;-0,001;0,000;0,002;
20190905_070702;-0,014;9,594;-1,669;0,004;0,002;0,004;
20190905_070702;-0,091;9,656;-1,654;0,001;0,001;0,002;
20190905_070702;-0,101;9,644;-1,628;0,003;0,000;0,002;
20190905_070702;0,012;9,570;-1,642;0,003;0,000;0,002;
20190905_070703;-0,098;9,555;-1,638;0,001;-0,001;0,002;
20190905_070703;0,002;9,665;-1,686;0,002;0,002;-0,000;
20190905_070703;-0,060;9,534;-1,554;-0,002;-0,001;-0,003;
20190905_070703;-0,038;9,586;-1,659;0,006;0,000;-0,005;
20190905_070703;-0,031;9,450;-1,535;-0,006;-0,002;-0,003;
20190905_070703;-0,103;9,675;-1,705;0,008;-0,002;-0,004;
20190905_070703;0,005;9,584;-1,607;-0,002;0,000;-0,000;
20190905_070703;-0,026;9,570;-1,671;0,001;-0,002;-0,001;
20190905_070703;0,010;9,661;-1,626;-0,002;-0,002;-0,006;
20190905_070704;-0,077;9,567;-1,633;-0,002;-0,001;-0,005;
20190905_070704;-0,024;9,594;-1,614;0,001;-0,001;-0,003;
20190905_070704;0,010;9,491;-1,647;-0,003;-0,001;-0,000;
20190905_070704;-0,029;9,584;-1,614;0,001;-0,002;-0,004;
20190905_070704;-0,065;9,495;-1,609;-0,002;-0,001;-0,003;
20190905_070704;-0,019;9,558;-1,676;0,007;-0,001;-0,005;
20190905_070704;-0,048;9,574;-1,599;-0,003;0,000;-0,004;
20190905_070704;0,038;9,558;-1,686;0,002;-0,001;-0,006;
20190905_070704;-0,060;9,579;-1,587;-0,000;-0,002;-0,005;
20190905_070705;0,036;9,608;-1,630;0,004;0,001;-0,004;
20190905_070705;-0,057;9,515;-1,642;-0,003;-0,002;-0,001;
20190905_070705;-0,045;9,627;-1,609;0,007;0,001;-0,001;
20190905_070705;0,007;9,555;-1,630;0,006;-0,001;-0,003;
20190905_070705;-0,024;9,608;-1,712;0,004;-0,002;0,002;
20190905_070705;-0,038;9,687;-1,650;-0,000;-0,003;-0,001;
20190905_070705;0,017;9,570;-1,611;-0,000;-0,002;0,001;
20190905_070705;-0,005;9,649;-1,671;0,005;-0,003;-0,003;
20190905_070705;-0,048;9,632;-1,650;-0,000;0,000;-0,003;
20190905_070705;-0,029;9,785;-1,700;0,003;0,002;-0,003;
20190905_070706;-0,026;9,641;-1,642;-0,001;0,001;-0,001;
20190905_070706;-0,084;9,840;-1,688;0,007;-0,002;-0,004;
20190905_070706;0,045;9,606;-1,662;-0,003;-0,001;0,002;
20190905_070706;-0,091;9,685;-1,745;0,010;-0,001;-0,001;
20190905_070706;-0,002;9,529;-1,664;-0,001;0,001;-0,001;
20190905_070706;-0,031;9,541;-1,618;0,006;-0,002;-0,004;
20190905_070706;-0,019;9,512;-1,640;0,003;-0,002;-0,000;
20190905_070706;-0,014;9,632;-1,638;0,004;-0,001;0,001;
20190905_070706;-0,029;9,601;-1,630;-0,000;-0,001;0,004;
20190905_070707;-0,041;9,687;-1,683;0,003;0,002;0,003;
20190905_070707;-0,120;9,708;-1,671;0,001;-0,001;0,004;
20190905_070707;-0,057;9,694;-1,669;-0,001;0,000;0,003;
20190905_070707;-0,010;9,644;-1,642;0,001;0,000;0,004;
20190905_070707;-0,062;9,598;-1,702;0,005;0,000;0,007;
20190905_070707;-0,065;9,632;-1,666;0,002;0,000;0,007;
20190905_070707;0,024;9,579;-1,686;0,001;0,000;0,003;
20190905_070707;-0,038;9,596;-1,642;0,001;0,000;0,001;
20190905_070707;0,007;9,522;-1,650;-0,002;-0,003;-0,003;
20190905_070708;-0,007;9,606;-1,659;0,002;-0,003;-0,006;
20190905_070708;0,026;9,541;-1,628;-0,000;-0,002;-0,005;
20190905_070708;-0,019;9,591;-1,623;-0,002;-0,002;-0,004;
20190905_070708;-0,002;9,483;-1,650;0,001;-0,002;-0,003;
20190905_070708;0,010;9,524;-1,645;0,001;-0,001;-0,004;
20190905_070708;-0,105;9,522;-1,633;-0,002;-0,002;-0,001;
20190905_070708;0,038;9,608;-1,642;0,004;-0,002;-0,005;
20190905_070708;0,019;9,479;-1,611;0,001;-0,003;-0,001;
20190905_070708;0,034;9,586;-1,724;0,008;0,001;-0,003;
20190905_070708;-0,105;9,577;-1,551;-0,006;-0,002;-0,007;
20190905_070709;-0,010;9,524;-1,642;0,001;-0,001;-0,006;
20190905_070709;-0,019;9,601;-1,611;-0,000;0,000;-0,007;
20190905_070709;-0,053;9,639;-1,697;0,004;-0,002;-0,005;
20190905_070709;-0,019;9,601;-1,607;-0,004;-0,003;-0,003;
20190905_070709;-0,045;9,673;-1,724;0,010;0,000;-0,000;
20190905_070709;-0,010;9,574;-1,638;-0,003;0,001;0,003;
20190905_070709;0,041;9,558;-1,580;0,001;-0,001;-0,000;
20190905_070709;-0,089;9,448;-1,621;0,006;-0,003;-0,004;
20190905_070709;-0,067;9,622;-1,709;0,005;-0,001;-0,003;
20190905_070710;0,045;9,517;-1,604;-0,007;-0,001;-0,001;
20190905_070710;0,019;9,531;-1,604;0,001;-0,002;-0,001;
20190905_070710;-0,012;9,553;-1,654;0,004;0,001;-0,001;
20190905_070710;-0,005;9,548;-1,642;-0,005;0,000;-0,000;
20190905_070710;0,038;9,531;-1,657;0,003;0,000;-0,001;
20190905_070710;0,019;9,529;-1,614;0,002;-0,002;-0,004;
20190905_070710;-0,084;9,586;-1,683;0,002;0,000;0,002;
20190905_070710;0,010;9,618;-1,662;0,003;0,001;-0,003;
20190905_070710;-0,012;9,632;-1,616;0,001;-0,002;-0,004;
20190905_070710;0,005;9,603;-1,683;0,002;-0,002;-0,000;
20190905_070711;-0,038;9,661;-1,652;-0,003;0,001;-0,001;
20190905_070711;-0,096;9,579;-1,671;0,005;-0,001;-0,000;
20190905_070711;0,026;9,448;-1,647;0,002;0,001;0,003;
20190905_070711;-0,105;9,524;-1,592;-0,000;0,003;0,003;
20190905_070711;-0,072;9,601;-1,669;0,006;0,000;0,002;
20190905_070711;-0,041;9,606;-1,659;-0,004;0,002;0,005;
20190905_070711;-0,148;9,598;-1,640;-0,000;0,003;0,005;
20190905_070711;0,034;9,512;-1,683;0,007;0,004;0,004;
20190905_070711;-0,067;9,536;-1,674;-0,005;-0,001;0,006;
20190905_070712;-0,194;9,572;-1,635;-0,004;0,000;0,009;
20190905_070712;0,062;9,515;-1,566;-0,006;0,003;0,010;
20190905_070712;-0,084;9,400;-1,587;-0,001;0,000;0,012;
20190905_070712;0,002;9,479;-1,597;0,005;0,002;0,012;
20190905_070712;-0,079;9,383;-1,602;0,002;0,001;0,009;
20190905_070712;-0,019;9,766;-1,726;0,011;0,001;0,007;
20190905_070712;-0,031;9,570;-1,697;-0,000;-0,002;0,007;
20190905_070712;-0,067;9,811;-1,652;0,010;-0,001;-0,004;
20190905_070712;0,081;9,543;-1,626;-0,005;-0,005;-0,000;
20190905_070713;-0,055;9,716;-1,717;0,006;-0,003;-0,006;
20190905_070713;0,034;9,531;-1,609;-0,005;-0,002;-0,005;
20190905_070713;-0,081;9,761;-1,772;0,006;-0,006;-0,012;
20190905_070713;0,034;9,661;-1,587;-0,005;-0,005;-0,010;
20190905_070713;0,014;9,634;-1,714;0,004;-0,006;-0,013;
20190905_070713;-0,036;9,685;-1,676;0,001;-0,005;-0,016;
20190905_070713;-0,022;9,658;-1,683;0,001;-0,005;-0,012;
20190905_070713;-0,041;9,653;-1,705;0,003;-0,002;-0,008;
20190905_070713;-0,036;9,560;-1,621;-0,005;-0,004;-0,007;
20190905_070713;-0,043;9,512;-1,650;0,003;-0,002;-0,007;
20190905_070714;0,002;9,570;-1,621;0,003;-0,001;-0,006;
20190905_070714;-0,034;9,596;-1,709;0,002;0,000;0,001;
20190905_070714;-0,007;9,629;-1,700;-0,000;0,001;0,002;
20190905_070714;0,057;9,567;-1,676;0,001;0,000;0,002;
20190905_070714;-0,036;9,550;-1,712;0,004;0,001;0,001;
20190905_070714;-0,069;9,615;-1,662;0,001;-0,002;-0,001;
20190905_070714;-0,045;9,550;-1,645;-0,001;-0,001;-0,000;
20190905_070714;0,024;9,543;-1,647;0,001;0,001;-0,000;
20190905_070714;-0,017;9,591;-1,662;0,002;0,000;0,003;
20190905_070714;0,026;9,565;-1,671;0,005;0,001;0,004;
20190905_070715;0,019;9,512;-1,693;0,002;0,001;0,004;
20190905_070715;0,024;9,665;-1,645;0,003;0,000;0,004;
20190905_070715;-0,043;9,673;-1,693;0,002;0,000;0,003;
20190905_070715;-0,122;9,694;-1,709;0,004;0,000;0,002;
20190905_070715;-0,010;9,632;-1,662;-0,000;0,000;-0,003;
20190905_070715;-0,053;9,606;-1,638;-0,000;0,000;-0,003;
20190905_070715;-0,136;9,677;-1,642;0,005;-0,002;-0,000;
20190905_070715;-0,014;9,584;-1,630;-0,000;0,002;0,001;
20190905_070715;-0,086;9,445;-1,678;-0,004;-0,002;0,006;
20190905_070716;-0,024;9,572;-1,659;-0,000;0,004;0,008;
20190905_070716;-0,053;9,515;-1,614;-0,002;0,001;0,013;
20190905_070716;-0,127;9,515;-1,688;0,001;0,002;0,017;
20190905_070716;-0,017;9,524;-1,642;-0,002;0,003;0,012;
20190905_070716;-0,091;9,404;-1,650;0,001;-0,003;0,007;
20190905_070716;-0,034;9,450;-1,683;0,006;0,001;0,003;
20190905_070716;-0,062;9,505;-1,688;-0,003;-0,002;-0,000;
20190905_070716;-0,022;9,462;-1,705;0,002;-0,003;-0,001;
20190905_070716;-0,067;9,500;-1,712;0,003;-0,002;-0,001;
20190905_070716;0,062;9,471;-1,666;0,002;-0,005;-0,001;
20190905_070717;-0,002;9,567;-1,733;-0,000;-0,004;-0,004;
20190905_070717;0,024;9,601;-1,774;0,005;-0,003;-0,005;
20190905_070717;0,081;9,673;-1,702;-0,000;-0,003;-0,003;
20190905_070717;-0,036;9,637;-1,820;-0,001;-0,003;-0,000;
20190905_070717;0,110;9,665;-1,810;0,007;0,000;-0,006;
20190905_070717;0,072;9,519;-1,753;-0,003;-0,004;-0,006;
20190905_070717;0,017;9,483;-1,791;-0,000;-0,003;-0,009;
20190905_070717;-0,081;9,227;-1,657;-0,007;-0,004;-0,011;
20190905_070717;-0,019;9,371;-1,731;0,007;-0,001;-0,010;
20190905_070718;0,077;9,301;-1,652;-0,005;-0,002;-0,007;
20190905_070718;0,069;9,589;-1,796;0,006;0,001;-0,004;
20190905_070718;-0,014;9,469;-1,712;-0,001;-0,002;-0,001;
20190905_070718;0,062;9,553;-1,839;0,011;0,003;-0,005;
20190905_070718;-0,053;9,553;-1,772;-0,003;-0,001;-0,005;
20190905_070718;0,055;9,649;-1,841;0,007;0,000;-0,007;
20190905_070718;-0,081;9,670;-1,757;-0,001;0,000;-0,004;
20190905_070718;-0,002;9,701;-1,824;0,003;0,001;-0,004;
20190905_070718;0,005;9,718;-1,836;-0,000;0,001;-0,000;
20190905_070719;-0,067;9,754;-1,793;0,002;0,002;0,002;
20190905_070719;-0,005;9,766;-1,865;0,003;0,001;0,003;
20190905_070719;-0,024;9,840;-1,815;-0,002;0,002;0,003;
20190905_070719;-0,024;9,641;-1,863;-0,001;0,002;0,007;
20190905_070719;-0,074;9,591;-1,733;-0,003;0,003;0,005;
20190905_070719;-0,096;9,416;-1,745;-0,001;0,002;0,009;
20190905_070719;-0,034;9,670;-1,753;0,008;0,003;0,010;
20190905_070719;-0,002;9,579;-1,784;-0,003;-0,002;0,012;
20190905_070719;-0,031;9,603;-1,815;0,005;0,003;0,009;
20190905_070719;-0,002;9,663;-1,803;0,001;0,002;0,007;
20190905_070720;-0,043;9,706;-1,810;0,003;-0,001;0,006;
20190905_070720;-0,012;9,704;-1,800;0,002;0,002;0,002;
20190905_070720;0,007;9,653;-1,781;-0,003;-0,002;0,001;
20190905_070720;-0,031;9,529;-1,817;0,002;-0,002;-0,003;
20190905_070720;0,017;9,397;-1,717;-0,004;-0,003;-0,008;
20190905_070720;-0,067;9,579;-1,810;0,006;-0,001;-0,009;
20190905_070720;-0,024;9,546;-1,774;-0,001;-0,001;0,001;
20190905_070720;-0,163;9,625;-1,812;0,006;0,001;0,008;
20190905_070720;-0,084;9,682;-1,805;0,004;0,002;0,012;
20190905_070721;-0,122;9,742;-1,848;0,002;0,003;0,013;
20190905_070721;-0,101;9,747;-1,877;0,006;-0,001;0,009;
20190905_070721;0,007;9,718;-1,829;-0,002;0,003;0,010;
20190905_070721;-0,069;9,594;-1,793;0,001;-0,001;0,008;
20190905_070721;-0,041;9,618;-1,774;0,002;-0,001;0,006;
20190905_070721;-0,069;9,558;-1,769;-0,002;-0,002;0,002;
20190905_070721;-0,115;9,536;-1,791;-0,000;-0,004;-0,000;
20190905_070721;0,005;9,531;-1,815;0,002;-0,001;0,002;
20190905_070721;-0,077;9,562;-1,779;-0,002;-0,002;-0,001;
20190905_070721;-0,010;9,689;-1,781;0,002;-0,005;-0,003;
20190905_070722;0,053;9,627;-1,733;-0,004;-0,002;-0,000;
20190905_070722;0,002;9,651;-1,791;0,006;-0,004;-0,003;
20190905_070722;0,074;9,237;-1,688;-0,011;-0,002;-0,006;
20190905_070722;0,019;9,328;-1,779;0,004;-0,005;-0,015;
20190905_070722;0,022;9,395;-1,683;-0,004;-0,004;-0,008;
20190905_070722;-0,005;9,505;-1,822;0,008;-0,002;-0,008;
20190905_070722;0,000;9,594;-1,686;-0,004;0,000;-0,005;
20190905_070722;0,050;9,452;-1,753;0,001;-0,003;-0,003;
20190905_070722;0,065;9,668;-1,750;0,007;-0,002;-0,008;
20190905_070723;0,031;9,536;-1,760;-0,001;-0,004;-0,007;
20190905_070723;0,024;9,713;-1,824;0,004;0,000;-0,011;
20190905_070723;-0,014;9,594;-1,772;-0,004;-0,004;-0,009;
20190905_070723;0,101;9,697;-1,793;0,004;-0,001;-0,010;
20190905_070723;0,036;9,493;-1,769;-0,004;-0,003;-0,007;
20190905_070723;-0,002;9,565;-1,781;0,003;-0,001;-0,008;
20190905_070723;0,079;9,519;-1,772;-0,001;-0,001;-0,007;
20190905_070723;0,050;9,498;-1,765;0,003;-0,003;-0,009;
20190905_070723;0,005;9,448;-1,733;-0,001;0,000;-0,005;
20190905_070723;-0,024;9,505;-1,745;0,004;-0,001;-0,008;
20190905_070724;0,026;9,479;-1,793;-0,000;-0,001;-0,006;
20190905_070724;0,034;9,515;-1,800;0,003;0,002;-0,005;
20190905_070724;0,019;9,347;-1,686;-0,003;0,001;-0,001;
20190905_070724;-0,024;9,452;-1,824;0,007;0,001;-0,003;
20190905_070724;-0,014;9,495;-1,745;0,004;0,002;-0,001;
20190905_070724;0,000;9,577;-1,805;0,006;-0,001;0,002;
20190905_070724;-0,074;9,567;-1,769;-0,001;0,002;0,001;
20190905_070724;0,002;9,529;-1,772;0,005;-0,001;0,001;
20190905_070724;-0,089;9,565;-1,815;0,004;0,000;0,002;
20190905_070725;-0,029;9,527;-1,793;0,001;0,001;0,003;
20190905_070725;-0,057;9,582;-1,784;-0,000;0,000;0,005;
20190905_070725;-0,089;9,519;-1,755;0,004;0,001;0,009;
20190905_070725;-0,031;9,462;-1,750;0,001;0,000;0,005;
20190905_070725;-0,067;9,529;-1,729;0,002;-0,002;0,004;
20190905_070725;-0,041;9,546;-1,745;-0,001;-0,001;0,005;
20190905_070725;-0,053;9,493;-1,774;-0,000;-0,002;0,008;
20190905_070725;-0,072;9,594;-1,784;0,004;-0,001;0,007;
20190905_070725;0,041;9,488;-1,784;-0,002;0,002;0,009;
20190905_070726;-0,067;9,531;-1,772;0,003;-0,002;0,007;
20190905_070726;-0,031;9,515;-1,812;-0,000;-0,001;0,007;
20190905_070726;-0,005;9,515;-1,769;0,001;-0,001;0,004;
20190905_070726;-0,036;9,517;-1,805;0,002;-0,003;0,001;
20190905_070726;0,041;9,503;-1,750;-0,004;0,000;0,005;
20190905_070726;-0,113;9,653;-1,875;0,005;-0,004;0,004;
20190905_070726;0,053;9,740;-1,848;0,003;-0,001;0,001;
20190905_070726;0,062;9,586;-1,779;-0,004;-0,004;-0,005;
20190905_070726;0,024;9,536;-1,741;-0,001;-0,004;-0,005;
20190905_070726;0,110;9,450;-1,772;0,001;0,000;-0,006;
20190905_070727;-0,086;9,459;-1,750;0,001;-0,004;-0,009;
20190905_070727;0,043;9,574;-1,844;0,005;-0,001;-0,008;
20190905_070727;0,055;9,522;-1,705;-0,003;-0,002;-0,008;
20190905_070727;-0,024;9,632;-1,774;0,010;-0,003;-0,009;
20190905_070727;-0,010;9,572;-1,774;-0,002;-0,004;-0,007;
20190905_070727;0,057;9,606;-1,786;0,005;-0,001;-0,005;
20190905_070727;0,007;9,474;-1,738;-0,001;0,000;0,001;
20190905_070727;-0,096;9,546;-1,791;0,005;0,001;0,003;
20190905_070727;-0,098;9,658;-1,796;-0,001;0,001;0,006;
20190905_070728;-0,043;9,436;-1,741;-0,003;0,002;0,008;
20190905_070728;-0,086;9,594;-1,741;0,003;0,001;0,008;
20190905_070728;-0,010;9,577;-1,769;-0,001;0,002;0,008;
20190905_070728;0,048;9,491;-1,774;-0,000;0,000;0,009;
20190905_070728;-0,002;9,565;-1,774;0,003;0,001;0,006;
20190905_070728;-0,026;9,522;-1,808;0,002;-0,001;0,008;
20190905_070728;-0,053;9,524;-1,762;-0,000;0,002;0,010;
20190905_070728;0,002;9,491;-1,803;0,001;0,002;0,007;
20190905_070728;-0,005;9,527;-1,774;0,002;0,000;0,006;
20190905_070729;-0,079;9,527;-1,750;0,001;-0,001;0,004;
20190905_070729;0,014;9,577;-1,736;0,001;0,000;0,005;
20190905_070729;0,014;9,620;-1,769;-0,001;0,000;0,005;
20190905_070729;0,022;9,644;-1,745;0,001;0,000;0,003;
20190905_070729;-0,029;9,562;-1,800;-0,001;0,000;0,003;
20190905_070729;-0,007;9,555;-1,779;-0,000;0,001;0,003;
20190905_070729;-0,057;9,505;-1,729;-0,002;-0,002;0,001;
20190905_070729;-0,002;9,536;-1,784;0,004;0,000;0,001;
20190905_070729;0,012;9,500;-1,760;-0,002;0,000;0,002;
20190905_070729;-0,086;9,584;-1,791;0,002;-0,002;0,003;
20190905_070730;-0,017;9,574;-1,745;0,001;0,002;0,004;
20190905_070730;-0,022;9,479;-1,786;0,002;0,000;0,005;
20190905_070730;-0,005;9,536;-1,820;0,001;0,000;0,003;
20190905_070730;0,024;9,538;-1,757;-0,001;-0,001;0,003;
20190905_070730;-0,086;9,558;-1,800;0,002;-0,002;0,002;
20190905_070730;0,062;9,469;-1,748;-0,001;0,000;-0,001;
20190905_070730;-0,050;9,483;-1,753;-0,004;-0,002;-0,006;
20190905_070730;0,017;9,529;-1,781;0,002;-0,003;-0,007;
20190905_070730;0,024;9,471;-1,714;-0,003;-0,001;-0,007;
20190905_070731;0,034;9,412;-1,745;-0,000;-0,002;-0,006;
20190905_070731;0,045;9,452;-1,791;0,004;-0,001;-0,005;
20190905_070731;0,105;9,464;-1,731;0,001;-0,002;-0,000;
20190905_070731;0,019;9,613;-1,786;0,006;0,000;-0,001;
20190905_070731;0,062;9,474;-1,702;-0,002;0,000;0,002;
20190905_070731;0,091;9,577;-1,769;0,006;0,002;0,004;
20190905_070731;0,105;9,634;-1,733;-0,003;0,000;0,007;
20190905_070731;-0,060;9,627;-1,820;0,005;0,001;0,002;
20190905_070731;-0,019;9,519;-1,777;-0,004;0,000;0,004;
20190905_070732;0,005;9,644;-1,786;0,010;0,004;0,004;
20190905_070732;0,069;9,519;-1,688;-0,010;0,002;0,005;
20190905_070732;-0,084;9,522;-1,791;0,008;0,004;0,005;
20190905_070732;-0,017;9,534;-1,757;-0,003;0,000;0,008;
20190905_070732;-0,017;9,608;-1,822;0,010;0,002;0,007;
20190905_070732;0,007;9,519;-1,726;-0,000;0,002;0,005;
20190905_070732;-0,029;9,507;-1,784;-0,000;0,001;0,003;
20190905_070732;0,062;9,500;-1,753;0,003;0,001;0,002;
20190905_070732;-0,026;9,519;-1,777;0,003;0,000;0,001;
20190905_070732;-0,096;9,529;-1,824;0,003;0,001;-0,000;
20190905_070733;-0,005;9,646;-1,798;0,004;0,000;-0,001;
20190905_070733;-0,029;9,522;-1,798;-0,001;0,000;0,001;
20190905_070733;0,017;9,620;-1,765;0,002;0,000;-0,001;
20190905_070733;-0,031;9,527;-1,784;-0,001;0,000;0,001;
20190905_070733;-0,034;9,507;-1,741;0,001;0,001;-0,000;
20190905_070733;0,034;9,452;-1,796;-0,001;-0,001;0,001;
20190905_070733;-0,022;9,498;-1,772;0,004;0,001;-0,001;
20190905_070733;0,000;9,546;-1,798;0,001;0,002;0,001;
20190905_070733;0,038;9,565;-1,786;0,003;0,002;0,001;
20190905_070734;-0,007;9,620;-1,769;-0,000;0,000;-0,000;
20190905_070734;-0,029;9,445;-1,719;0,001;0,000;-0,000;
20190905_070734;-0,010;9,486;-1,760;0,002;0,001;-0,003;
20190905_070734;-0,019;9,596;-1,726;0,002;0,000;-0,001;
20190905_070734;0,010;9,601;-1,827;0,004;0,002;-0,003;
20190905_070734;-0,038;9,582;-1,755;-0,002;0,002;0,001;
20190905_070734;-0,055;9,531;-1,741;0,001;0,001;0,002;
20190905_070734;0,005;9,646;-1,810;0,006;0,002;-0,001;
20190905_070734;0,026;9,560;-1,765;-0,001;0,001;-0,000;
20190905_070734;-0,038;9,610;-1,777;0,006;0,001;-0,000;
20190905_070735;-0,017;9,527;-1,736;-0,003;0,002;0,001;
20190905_070735;-0,026;9,613;-1,750;0,004;0,000;0,001;
20190905_070735;-0,031;9,560;-1,767;-0,000;0,001;0,002;
20190905_070735;-0,081;9,558;-1,772;0,004;0,001;0,001;
20190905_070735;-0,055;9,584;-1,788;-0,002;0,001;0,003;
20190905_070735;-0,124;9,629;-1,762;0,003;0,001;0,003;
20190905_070735;-0,002;9,558;-1,750;0,001;0,001;0,006;
20190905_070735;-0,072;9,574;-1,786;0,001;0,000;0,003;
20190905_070735;-0,098;9,582;-1,765;-0,002;0,001;0,004;
20190905_070736;-0,036;9,565;-1,800;0,002;0,001;0,005;
20190905_070736;-0,014;9,579;-1,784;0,002;0,001;0,004;
20190905_070736;-0,074;9,546;-1,765;0,001;0,001;0,004;
20190905_070736;-0,034;9,615;-1,793;0,003;-0,001;0,002;
20190905_070736;-0,041;9,541;-1,767;-0,001;0,001;0,002;
20190905_070736;0,038;9,517;-1,767;0,003;-0,001;0,001;
20190905_070736;-0,050;9,515;-1,781;-0,001;-0,001;-0,000;
20190905_070736;-0,029;9,558;-1,760;0,002;-0,001;-0,001;
20190905_070736;0,002;9,536;-1,781;0,001;-0,001;-0,001;
20190905_070736;-0,034;9,543;-1,796;0,001;-0,003;-0,003;
20190905_070737;0,017;9,546;-1,772;0,003;-0,002;-0,004;
20190905_070737;-0,069;9,582;-1,774;0,002;-0,002;-0,004;
20190905_070737;-0,005;9,531;-1,760;0,001;-0,001;-0,004;
20190905_070737;-0,057;9,591;-1,765;0,002;-0,002;-0,005;
20190905_070737;-0,041;9,555;-1,791;-0,000;-0,002;-0,006;
20190905_070737;-0,034;9,531;-1,765;0,001;-0,003;-0,005;
20190905_070737;-0,005;9,493;-1,786;-0,000;-0,002;-0,006;
20190905_070737;-0,002;9,486;-1,748;-0,001;-0,002;-0,007;
20190905_070737;0,005;9,517;-1,755;0,003;-0,003;-0,006;
20190905_070737;-0,045;9,515;-1,755;0,002;-0,002;-0,007;
20190905_070738;-0,014;9,500;-1,755;0,001;-0,002;-0,007;
20190905_070738;-0,053;9,529;-1,774;0,001;-0,002;-0,007;
20190905_070738;-0,038;9,519;-1,731;0,001;-0,001;-0,007;
20190905_070738;-0,067;9,515;-1,791;0,002;-0,002;-0,005;
20190905_070738;-0,007;9,510;-1,765;0,001;-0,002;-0,004;
20190905_070738;-0,034;9,500;-1,762;0,002;-0,001;-0,005;
20190905_070738;-0,053;9,546;-1,791;-0,000;-0,002;-0,005;
20190905_070738;-0,048;9,603;-1,765;0,002;-0,003;-0,003;
20190905_070738;-0,034;9,594;-1,760;0,002;-0,001;-0,003;
20190905_070739;-0,014;9,625;-1,774;0,002;-0,001;-0,004;
20190905_070739;-0,043;9,562;-1,774;0,002;-0,002;-0,003;
20190905_070739;0,029;9,567;-1,772;0,002;-0,002;-0,004;
20190905_070739;-0,010;9,582;-1,743;0,002;-0,002;-0,004;
20190905_070739;-0,026;9,582;-1,765;0,001;-0,002;-0,004;
20190905_070739;-0,026;9,565;-1,786;-0,000;-0,001;-0,004;
20190905_070739;0,019;9,570;-1,793;0,003;-0,002;-0,004;
20190905_070739;0,012;9,574;-1,774;0,001;-0,003;-0,001;
20190905_070739;-0,010;9,603;-1,796;0,002;-0,002;-0,004;
20190905_070739;-0,053;9,582;-1,800;0,001;-0,002;-0,004;
20190905_070740;-0,048;9,570;-1,774;0,001;-0,001;-0,003;
20190905_070740;-0,029;9,582;-1,760;0,001;-0,002;-0,003;
20190905_070740;-0,012;9,541;-1,748;-0,000;-0,001;-0,003;
20190905_070740;-0,038;9,550;-1,738;0,002;-0,001;-0,001;
20190905_070740;-0,043;9,584;-1,777;0,002;-0,001;-0,001;
20190905_070740;-0,043;9,486;-1,745;-0,001;0,001;0,003;
20190905_070740;-0,041;9,462;-1,781;-0,001;-0,000;0,004;
20190905_070740;-0,019;9,498;-1,753;0,001;0,001;0,002;
20190905_070740;-0,053;9,505;-1,774;-0,000;-0,000;0,003;
20190905_070740;-0,060;9,529;-1,781;-0,001;0,001;0,002;
20190905_070741;-0,041;9,491;-1,738;-0,000;-0,000;0,002;
20190905_070741;-0,043;9,486;-1,788;0,001;0,001;0,003;
20190905_070741;0,002;9,531;-1,765;-0,001;-0,000;0,003;
20190905_070741;-0,002;9,479;-1,717;-0,000;0,002;0,004;
20190905_070741;-0,069;9,517;-1,707;0,001;-0,000;0,003;
20190905_070741;-0,017;9,543;-1,736;0,002;0,001;0,003;
20190905_070741;-0,029;9,534;-1,755;0,003;0,001;0,003;
20190905_070741;-0,007;9,500;-1,717;-0,000;-0,000;0,002;
20190905_070741;-0,024;9,543;-1,750;0,002;-0,000;0,003;
20190905_070741;-0,041;9,524;-1,750;-0,000;0,001;0,003;
20190905_070742;-0,041;9,555;-1,765;0,002;-0,001;0,003;
20190905_070742;-0,002;9,510;-1,779;-0,000;-0,000;0,004;
20190905_070742;-0,034;9,538;-1,779;0,001;0,001;0,004;
20190905_070742;-0,017;9,517;-1,733;-0,000;-0,000;0,002;
20190905_070742;-0,045;9,586;-1,757;0,002;-0,000;0,003;
20190905_070742;-0,014;9,577;-1,772;0,001;0,001;0,002;
20190905_070742;-0,031;9,596;-1,788;0,003;-0,001;0,002;
20190905_070742;-0,014;9,608;-1,767;-0,001;-0,000;0,003;
20190905_070742;-0,041;9,562;-1,760;-0,000;-0,000;0,003;
20190905_070743;-0,043;9,577;-1,779;0,001;-0,000;0,003;
20190905_070743;-0,043;9,510;-1,769;-0,002;-0,000;0,002;
20190905_070743;-0,062;9,498;-1,772;-0,001;0,001;0,003;
20190905_070743;0,012;9,483;-1,786;0,002;0,001;0,003;
20190905_070743;-0,036;9,505;-1,781;-0,000;0,002;0,003;
20190905_070743;-0,010;9,491;-1,738;-0,001;-0,000;0,003;
20190905_070743;-0,022;9,459;-1,753;-0,001;0,001;0,002;
20190905_070743;-0,062;9,486;-1,750;-0,001;0,001;0,003;
20190905_070743;-0,012;9,450;-1,736;-0,003;-0,000;0,005;
20190905_070744;-0,007;9,464;-1,726;0,002;0,002;0,003;
20190905_070744;-0,034;9,409;-1,750;-0,001;-0,000;0,004;
20190905_070744;0,022;9,531;-1,719;0,002;0,003;0,003;
20190905_070744;-0,045;9,457;-1,724;-0,003;-0,001;0,005;
20190905_070744;-0,067;9,517;-1,774;0,002;0,002;0,006;
20190905_070744;-0,019;9,455;-1,695;-0,004;0,003;0,006;
20190905_070744;-0,031;9,462;-1,750;0,004;0,000;0,002;
20190905_070744;0,005;9,498;-1,777;-0,001;0,001;0,004;
20190905_070744;-0,007;9,474;-1,729;-0,000;0,000;0,004;
20190905_070744;-0,055;9,503;-1,786;-0,001;0,000;0,002;
20190905_070745;-0,014;9,483;-1,743;0,001;-0,002;0,001;
20190905_070745;-0,038;9,486;-1,757;-0,000;0,000;0,002;
20190905_070745;-0,062;9,495;-1,753;-0,000;-0,001;0,004;
20190905_070745;-0,036;9,476;-1,767;0,001;0,001;0,003;
20190905_070745;-0,098;9,515;-1,745;0,001;-0,001;0,003;
20190905_070745;-0,060;9,493;-1,733;0,001;0,000;0,005;
20190905_070745;-0,065;9,548;-1,753;0,001;0,003;0,006;
20190905_070745;-0,019;9,491;-1,745;-0,002;0,003;0,005;
20190905_070745;-0,084;9,510;-1,755;-0,000;0,001;0,006;
20190905_070746;-0,041;9,467;-1,760;-0,001;0,003;0,006;
20190905_070746;-0,113;9,543;-1,753;0,001;0,000;0,005;
20190905_070746;0,010;9,570;-1,726;-0,002;0,000;0,004;
20190905_070746;-0,010;9,565;-1,777;0,003;0,000;0,001;
20190905_070746;-0,005;9,594;-1,781;-0,000;-0,001;0,001;
20190905_070746;0,000;9,467;-1,743;-0,002;-0,001;0,003;
20190905_070746;-0,045;9,524;-1,765;0,001;-0,001;0,001;
20190905_070746;-0,031;9,550;-1,743;-0,003;-0,002;0,002;
20190905_070746;-0,014;9,512;-1,724;-0,001;-0,002;0,001;
20190905_070747;-0,022;9,503;-1,745;-0,000;0,000;-0,000;
20190905_070747;-0,019;9,507;-1,729;-0,001;0,000;0,001;
20190905_070747;-0,010;9,522;-1,690;-0,000;-0,001;-0,001;
20190905_070747;0,019;9,546;-1,707;-0,001;0,000;-0,001;
20190905_070747;-0,012;9,546;-1,697;-0,000;-0,002;-0,002;
20190905_070747;-0,041;9,598;-1,664;-0,000;0,000;-0,002;
20190905_070747;0,000;9,536;-1,674;-0,000;-0,001;-0,005;
20190905_070747;-0,019;9,570;-1,693;0,001;-0,002;-0,005;
20190905_070747;0,034;9,625;-1,707;-0,000;-0,002;-0,006;
20190905_070747;-0,053;9,620;-1,662;0,001;-0,002;-0,007;
20190905_070748;0,022;9,586;-1,650;0,001;0,001;-0,005;
20190905_070748;0,024;9,615;-1,618;0,001;0,000;-0,002;
20190905_070748;-0,036;9,567;-1,635;-0,000;0,000;-0,001;
20190905_070748;-0,050;9,541;-1,654;-0,001;0,001;-0,001;
20190905_070748;0,005;9,548;-1,635;-0,001;0,001;0,001;
20190905_070748;0,002;9,534;-1,652;0,001;0,001;0,001;
20190905_070748;-0,053;9,524;-1,602;0,001;0,001;0,002;
20190905_070748;0,034;9,524;-1,645;-0,000;0,000;0,003;
20190905_070748;-0,019;9,550;-1,623;0,002;0,001;0,003;
20190905_070748;-0,041;9,567;-1,607;0,002;0,001;0,003;
20190905_070749;-0,019;9,610;-1,611;0,001;0,001;0,003;
20190905_070749;0,012;9,579;-1,609;-0,001;0,001;0,003;
20190905_070749;-0,050;9,608;-1,554;-0,001;0,003;0,003;
20190905_070749;-0,014;9,596;-1,592;-0,001;0,003;0,004;
20190905_070749;-0,043;9,644;-1,551;0,001;0,000;0,003;
20190905_070749;0,000;9,632;-1,590;-0,000;0,004;0,005;
20190905_070749;-0,045;9,608;-1,537;-0,001;0,001;0,004;
20190905_070749;-0,029;9,625;-1,592;0,001;0,000;0,005;
20190905_070749;-0,048;9,570;-1,575;-0,001;0,002;0,005;
20190905_070750;-0,089;9,567;-1,597;0,001;0,001;0,005;
20190905_070750;-0,043;9,610;-1,537;-0,002;0,001;0,006;
20190905_070750;-0,081;9,610;-1,554;0,002;0,001;0,005;
20190905_070750;-0,038;9,567;-1,544;-0,001;0,001;0,006;
20190905_070750;-0,050;9,606;-1,554;0,002;0,002;0,006;
20190905_070750;0,022;9,606;-1,544;-0,001;0,001;0,006;
20190905_070750;-0,055;9,586;-1,587;0,003;0,000;0,005;
20190905_070750;-0,050;9,598;-1,573;-0,000;0,000;0,005;
20190905_070750;-0,057;9,565;-1,566;-0,000;0,000;0,005;
20190905_070751;0,060;9,625;-1,537;0,001;-0,001;0,003;
20190905_070751;0,048;9,572;-1,585;-0,000;0,000;0,003;
20190905_070751;-0,002;9,579;-1,568;-0,000;0,002;0,002;
20190905_070751;-0,005;9,579;-1,513;-0,000;-0,002;-0,000;
20190905_070751;0,022;9,522;-1,523;-0,002;0,001;0,001;
20190905_070751;-0,048;9,572;-1,530;0,002;-0,001;-0,000;
20190905_070751;-0,034;9,550;-1,520;-0,001;-0,002;-0,000;
20190905_070751;-0,019;9,558;-1,537;0,001;0,000;-0,000;
20190905_070751;-0,043;9,574;-1,554;0,001;0,000;-0,000;
20190905_070751;-0,007;9,507;-1,520;0,001;0,001;-0,000;
20190905_070752;-0,005;9,548;-1,571;0,002;-0,001;0,001;
20190905_070752;0,031;9,565;-1,508;-0,000;0,001;-0,000;
20190905_070752;-0,065;9,550;-1,568;-0,000;0,000;0,001;
20190905_070752;0,002;9,515;-1,520;-0,000;0,000;0,002;
20190905_070752;-0,010;9,606;-1,551;0,002;0,000;-0,000;
20190905_070752;0,002;9,546;-1,518;-0,002;0,002;0,003;
20190905_070752;-0,017;9,596;-1,511;-0,001;0,001;0,001;
20190905_070752;-0,045;9,594;-1,566;0,001;0,002;0,002;
20190905_070752;0,034;9,553;-1,547;-0,000;0,001;0,002;
20190905_070752;-0,060;9,586;-1,580;0,001;0,001;0,002;
20190905_070753;-0,053;9,591;-1,547;-0,002;0,002;0,003;
20190905_070753;-0,069;9,601;-1,561;-0,000;0,002;0,005;
20190905_070753;-0,110;9,596;-1,520;-0,000;0,000;0,006;
20190905_070753;-0,031;9,570;-1,551;-0,001;0,002;0,007;
20190905_070753;-0,072;9,586;-1,537;-0,000;0,001;0,007;
20190905_070753;-0,026;9,589;-1,537;-0,001;0,002;0,007;
20190905_070753;-0,043;9,574;-1,561;-0,001;0,002;0,006;
20190905_070753;-0,007;9,601;-1,568;-0,001;0,000;0,006;
20190905_070753;-0,103;9,579;-1,520;-0,001;0,001;0,005;
20190905_070754;-0,060;9,491;-1,542;-0,001;0,000;0,005;
20190905_070754;-0,019;9,524;-1,539;-0,001;0,000;0,005;
20190905_070754;-0,007;9,486;-1,518;-0,003;0,000;0,003;
20190905_070754;-0,036;9,471;-1,530;0,003;0,000;0,002;
20190905_070754;-0,002;9,462;-1,511;-0,001;0,000;0,001;
20190905_070754;0,000;9,522;-1,523;-0,000;-0,001;-0,001;
20190905_070754;-0,012;9,476;-1,508;-0,000;-0,001;-0,000;
20190905_070754;-0,010;9,517;-1,535;-0,000;-0,002;-0,004;
20190905_070754;-0,029;9,548;-1,549;0,002;-0,003;-0,005;
20190905_070754;0,029;9,543;-1,542;-0,000;-0,003;-0,006;
20190905_070755;0,012;9,560;-1,532;-0,000;-0,003;-0,007;
20190905_070755;-0,024;9,553;-1,527;0,002;-0,002;-0,007;
20190905_070755;0,007;9,610;-1,568;0,001;-0,002;-0,008;
20190905_070755;0,017;9,601;-1,549;-0,000;-0,002;-0,008;
20190905_070755;0,005;9,618;-1,573;-0,002;-0,002;-0,007;
20190905_070755;-0,017;9,598;-1,559;-0,001;-0,001;-0,007;
20190905_070755;0,022;9,594;-1,568;-0,000;-0,002;-0,007;
20190905_070755;0,014;9,601;-1,587;-0,001;-0,001;-0,006;
20190905_070755;0,014;9,586;-1,578;0,001;-0,001;-0,006;
20190905_070755;-0,014;9,586;-1,587;0,001;-0,001;-0,006;
20190905_070756;0,036;9,584;-1,561;0,001;0,000;-0,005;
20190905_070756;0,000;9,651;-1,571;0,001;0,000;-0,005;
20190905_070756;-0,062;9,620;-1,587;0,001;-0,001;-0,004;
20190905_070756;-0,014;9,656;-1,597;0,001;0,000;-0,003;
20190905_070756;-0,048;9,627;-1,618;0,002;0,001;-0,002;
20190905_070756;-0,048;9,661;-1,525;0,001;0,003;-0,002;
20190905_070756;0,002;9,613;-1,575;-0,000;0,000;-0,001;
20190905_070756;-0,062;9,618;-1,580;0,001;0,001;0,000;
20190905_070756;-0,096;9,677;-1,607;0,003;0,001;0,000;
20190905_070757;-0,014;9,618;-1,571;0,002;0,000;-0,001;
20190905_070757;-0,024;9,641;-1,607;0,002;0,001;0,001;
20190905_070757;-0,069;9,649;-1,597;0,002;0,003;0,002;
20190905_070757;-0,041;9,677;-1,592;0,003;0,001;0,001;
20190905_070757;-0,029;9,682;-1,595;0,002;0,000;0,003;
20190905_070757;-0,084;9,675;-1,556;0,001;0,003;0,003;
20190905_070757;-0,024;9,658;-1,595;0,003;0,000;0,002;
20190905_070757;-0,057;9,675;-1,611;-0,001;0,000;0,002;
20190905_070757;-0,098;9,725;-1,599;0,001;0,000;0,002;
20190905_070758;-0,005;9,677;-1,609;0,002;0,000;0,001;
20190905_070758;-0,041;9,708;-1,597;-0,000;-0,001;0,000;
20190905_070758;-0,091;9,618;-1,595;0,001;0,001;0,001;
20190905_070758;-0,031;9,646;-1,587;0,001;-0,002;0,000;
20190905_070758;-0,053;9,653;-1,602;0,001;0,000;-0,001;
20190905_070758;-0,045;9,637;-1,597;-0,000;-0,001;-0,001;
20190905_070758;-0,022;9,618;-1,575;-0,000;-0,001;0,000;
20190905_070758;-0,014;9,584;-1,568;-0,000;-0,002;-0,003;
20190905_070758;-0,031;9,610;-1,539;-0,000;-0,002;-0,002;
20190905_070758;-0,069;9,610;-1,590;0,001;-0,002;-0,002;
20190905_070759;-0,026;9,541;-1,556;-0,000;-0,002;-0,003;
20190905_070759;-0,053;9,586;-1,602;0,002;-0,002;-0,004;
20190905_070759;-0,031;9,601;-1,587;0,001;-0,002;-0,004;
20190905_070759;-0,041;9,622;-1,554;-0,000;-0,002;-0,004;
20190905_070759;-0,036;9,639;-1,547;0,001;-0,003;-0,005;
20190905_070759;0,029;9,589;-1,607;-0,000;-0,001;-0,004;
20190905_070759;-0,010;9,594;-1,556;0,001;-0,003;-0,005;
20190905_070759;-0,036;9,579;-1,568;-0,002;-0,003;-0,005;
20190905_070759;-0,031;9,582;-1,566;-0,001;-0,002;-0,005;
20190905_070759;-0,005;9,594;-1,602;-0,002;-0,002;-0,005;
20190905_070800;-0,010;9,579;-1,566;-0,002;-0,002;-0,004;
20190905_070800;0,022;9,596;-1,595;-0,001;-0,001;-0,005;
20190905_070800;-0,024;9,596;-1,573;-0,003;-0,002;-0,004;
20190905_070800;-0,022;9,582;-1,539;-0,001;0,000;-0,005;
20190905_070800;-0,022;9,550;-1,566;-0,003;-0,001;-0,005;
20190905_070800;-0,031;9,570;-1,597;0,000;-0,001;-0,005;
20190905_070800;0,014;9,543;-1,575;0,000;-0,001;-0,004;
20190905_070800;-0,062;9,591;-1,583;0,000;0,000;-0,005;
20190905_070800;-0,062;9,527;-1,561;-0,002;-0,001;-0,003;
20190905_070801;-0,043;9,512;-1,573;-0,002;-0,001;-0,004;
20190905_070801;0,019;9,524;-1,575;-0,002;-0,002;-0,004;
20190905_070801;-0,022;9,560;-1,592;0,000;0,000;-0,003;
20190905_070801;-0,012;9,562;-1,575;-0,002;0,000;-0,001;
20190905_070801;-0,041;9,574;-1,585;-0,001;0,000;0,001;
20190905_070801;-0,048;9,546;-1,561;-0,001;0,000;0,003;
20190905_070801;-0,043;9,531;-1,604;-0,003;0,000;0,005;
20190905_070801;-0,057;9,562;-1,542;-0,002;0,001;0,006;
20190905_070801;-0,081;9,565;-1,587;0,003;0,003;0,008;
20190905_070801;-0,036;9,536;-1,561;-0,002;0,003;0,012;
20190905_070802;-0,034;9,543;-1,580;0,001;0,001;0,012;
20190905_070802;-0,053;9,529;-1,554;-0,001;0,002;0,014;
20190905_070802;0,007;9,586;-1,542;0,002;0,002;0,014;
20190905_070802;-0,079;9,517;-1,592;-0,002;0,003;0,017;
20190905_070802;-0,065;9,598;-1,547;-0,001;0,003;0,017;
20190905_070802;-0,069;9,512;-1,578;0,001;0,002;0,017;
20190905_070802;-0,038;9,555;-1,547;-0,001;0,002;0,019;
20190905_070802;-0,017;9,512;-1,561;-0,001;0,003;0,020;
20190905_070802;-0,062;9,519;-1,554;0,000;0,003;0,023;
20190905_070803;0,012;9,507;-1,575;0,001;0,005;0,025;
20190905_070803;0,007;9,503;-1,554;0,000;0,003;0,028;
20190905_070803;-0,053;9,538;-1,599;-0,002;0,003;0,030;
20190905_070803;-0,024;9,550;-1,604;-0,001;0,006;0,032;
20190905_070803;-0,024;9,550;-1,575;0,000;0,006;0,032;
20190905_070803;-0,007;9,558;-1,556;0,002;0,006;0,034;
20190905_070803;-0,019;9,550;-1,583;0,000;0,006;0,033;
20190905_070803;0,034;9,541;-1,556;-0,001;0,007;0,035;
20190905_070803;0,017;9,565;-1,549;0,002;0,008;0,036;
20190905_070803;0,024;9,601;-1,578;0,001;0,007;0,036;
20190905_070804;0,089;9,629;-1,590;0,002;0,007;0,036;
20190905_070804;0,065;9,610;-1,618;0,002;0,006;0,036;
20190905_070804;0,060;9,634;-1,590;0,003;0,008;0,037;
20190905_070804;0,072;9,632;-1,599;0,000;0,008;0,037;
20190905_070804;0,091;9,644;-1,618;0,004;0,009;0,037;
20190905_070804;0,048;9,718;-1,590;0,000;0,009;0,037;
20190905_070804;0,089;9,675;-1,623;0,004;0,009;0,037;
20190905_070804;0,072;9,694;-1,621;0,000;0,009;0,036;
20190905_070804;0,151;9,699;-1,604;0,002;0,010;0,036;
20190905_070805;0,089;9,689;-1,580;0,002;0,010;0,036;
20190905_070805;0,091;9,694;-1,638;0,002;0,010;0,035;
20190905_070805;0,144;9,704;-1,659;0,003;0,010;0,034;
20190905_070805;0,098;9,768;-1,638;0,002;0,012;0,035;
20190905_070805;0,141;9,742;-1,609;0,002;0,011;0,034;
20190905_070805;0,093;9,759;-1,640;0,003;0,012;0,033;
20190905_070805;0,115;9,723;-1,647;0,000;0,012;0,033;
20190905_070805;0,091;9,720;-1,628;0,002;0,012;0,033;
20190905_070805;0,093;9,697;-1,640;0,000;0,014;0,033;
20190905_070805;0,089;9,708;-1,638;-0,001;0,014;0,033;
20190905_070806;0,132;9,668;-1,657;0,001;0,016;0,032;
20190905_070806;0,103;9,670;-1,638;0,001;0,015;0,032;
20190905_070806;0,060;9,694;-1,621;0,002;0,014;0,033;
20190905_070806;0,093;9,620;-1,616;0,000;0,016;0,032;
20190905_070806;0,077;9,656;-1,599;0,001;0,015;0,031;
20190905_070806;0,134;9,646;-1,609;0,001;0,015;0,031;
20190905_070806;0,065;9,632;-1,640;0,000;0,015;0,030;
20190905_070806;0,067;9,649;-1,607;0,001;0,015;0,030;
20190905_070806;0,086;9,637;-1,616;-0,002;0,017;0,029;
20190905_070806;0,062;9,618;-1,611;0,002;0,016;0,027;
20190905_070807;0,067;9,579;-1,616;0,000;0,016;0,027;
20190905_070807;0,084;9,594;-1,614;0,000;0,015;0,025;
20190905_070807;0,084;9,603;-1,611;0,003;0,017;0,024;
20190905_070807;0,096;9,613;-1,599;0,000;0,016;0,023;
20190905_070807;0,029;9,567;-1,587;0,000;0,016;0,021;
20190905_070807;0,060;9,606;-1,607;0,002;0,016;0,019;
20190905_070807;0,067;9,601;-1,583;0,002;0,015;0,018;
20190905_070807;0,096;9,618;-1,604;0,003;0,015;0,017;
20190905_070807;0,029;9,538;-1,575;0,001;0,015;0,016;
20190905_070808;0,084;9,598;-1,599;0,000;0,014;0,015;
20190905_070808;0,034;9,622;-1,587;0,001;0,014;0,016;
20190905_070808;0,022;9,622;-1,607;0,001;0,015;0,014;
20190905_070808;0,034;9,670;-1,621;0,002;0,016;0,013;
20190905_070808;0,019;9,634;-1,621;0,002;0,015;0,014;
20190905_070808;0,012;9,653;-1,630;0,002;0,015;0,014;
20190905_070808;0,057;9,656;-1,616;0,003;0,014;0,013;
20190905_070808;-0,038;9,699;-1,628;0,003;0,014;0,013;
20190905_070808;0,010;9,708;-1,640;0,002;0,015;0,012;
20190905_070808;0,010;9,701;-1,645;0,002;0,015;0,014;
20190905_070809;-0,034;9,716;-1,618;0,001;0,015;0,015;
20190905_070809;-0,007;9,701;-1,640;0,001;0,014;0,013;
20190905_070809;0,024;9,649;-1,638;0,002;0,015;0,012;
20190905_070809;0,014;9,725;-1,630;0,005;0,014;0,012;
20190905_070809;0,055;9,713;-1,621;0,000;0,014;0,011;
20190905_070809;0,002;9,699;-1,650;0,004;0,013;0,008;
20190905_070809;0,041;9,694;-1,657;0,002;0,013;0,007;
20190905_070809;0,034;9,718;-1,616;0,003;0,013;0,007;
20190905_070809;0,034;9,720;-1,599;0,003;0,013;0,006;
20190905_070810;-0,010;9,756;-1,666;0,003;0,013;0,006;
20190905_070810;0,031;9,768;-1,659;0,005;0,013;0,006;
20190905_070810;0,024;9,802;-1,674;0,004;0,013;0,004;
20190905_070810;0,045;9,843;-1,657;0,004;0,013;0,002;
20190905_070810;0,055;9,828;-1,676;0,005;0,013;0,002;
20190905_070810;0,086;9,833;-1,671;0,004;0,012;0,002;
20190905_070810;0,062;9,888;-1,686;0,004;0,012;-0,000;
20190905_070810;0,043;9,907;-1,688;0,003;0,012;-0,000;
20190905_070810;0,048;9,883;-1,719;0,005;0,012;-0,001;
20190905_070810;0,041;9,941;-1,688;0,005;0,012;-0,001;
20190905_070811;0,060;9,902;-1,705;0,003;0,013;-0,002;
20190905_070811;0,045;9,955;-1,683;0,008;0,012;-0,001;
20190905_070811;0,074;9,953;-1,697;0,002;0,014;-0,001;
20190905_070811;0,057;9,953;-1,690;0,008;0,013;-0,002;
20190905_070811;0,077;9,962;-1,690;0,002;0,013;-0,001;
20190905_070811;0,067;9,965;-1,700;0,005;0,013;-0,001;
20190905_070811;0,024;9,962;-1,707;0,003;0,013;-0,000;
20190905_070811;0,022;10,020;-1,714;0,004;0,014;-0,000;
20190905_070811;0,005;9,938;-1,709;0,003;0,014;0,001;
20190905_070812;0,038;9,969;-1,690;0,004;0,015;0,001;
20190905_070812;0,036;9,946;-1,690;0,003;0,014;0,001;
20190905_070812;0,000;9,948;-1,724;0,004;0,015;-0,000;
20190905_070812;0,036;9,914;-1,693;0,001;0,015;-0,000;
20190905_070812;0,055;9,929;-1,724;0,003;0,015;0,002;
20190905_070812;0,026;9,938;-1,688;0,001;0,015;0,001;
20190905_070812;0,053;9,919;-1,707;0,002;0,015;0,001;
20190905_070812;0,031;9,878;-1,693;0,001;0,015;0,003;
20190905_070812;-0,007;9,874;-1,681;0,003;0,016;0,004;
20190905_070812;-0,024;9,874;-1,683;0,003;0,015;0,002;
20190905_070813;0,007;9,845;-1,709;0,002;0,016;0,004;
20190905_070813;0,000;9,883;-1,688;0,001;0,014;0,004;
20190905_070813;0,081;9,852;-1,674;0,002;0,015;0,003;
20190905_070813;-0,012;9,807;-1,678;0,002;0,015;0,003;
20190905_070813;0,012;9,855;-1,674;0,002;0,014;0,001;
20190905_070813;0,012;9,835;-1,690;0,004;0,014;0,002;
20190905_070813;0,017;9,881;-1,719;0,005;0,015;0,001;
20190905_070813;-0,019;9,888;-1,683;0,002;0,013;-0,001;
20190905_070813;0,014;9,828;-1,693;0,004;0,014;-0,002;
20190905_070814;-0,002;9,895;-1,695;0,004;0,014;-0,003;
20190905_070814;0,072;9,869;-1,712;0,002;0,013;-0,003;
20190905_070814;0,050;9,847;-1,700;0,003;0,012;-0,005;
20190905_070814;0,022;9,910;-1,707;0,005;0,012;-0,006;
20190905_070814;0,002;9,857;-1,697;0,003;0,012;-0,008;
20190905_070814;0,024;9,886;-1,688;0,002;0,011;-0,008;
20190905_070814;0,050;9,898;-1,707;0,003;0,012;-0,011;
20190905_070814;-0,007;9,864;-1,676;0,000;0,011;-0,011;
20190905_070814;0,072;9,881;-1,666;0,001;0,011;-0,012;
20190905_070814;0,024;9,826;-1,690;-0,002;-0,003;-0,013;
20190905_070815;0,002;9,819;-1,642;-0,002;-0,003;-0,015;
20190905_070815;0,029;9,795;-1,681;-0,001;-0,002;-0,015;
20190905_070815;0,000;9,785;-1,676;-0,002;-0,004;-0,015;
20190905_070815;0,050;9,773;-1,678;-0,002;-0,004;-0,016;
20190905_070815;0,045;9,773;-1,693;-0,002;-0,002;-0,017;
20190905_070815;0,060;9,761;-1,683;0,001;-0,004;-0,018;
20190905_070815;0,043;9,790;-1,690;-0,002;-0,003;-0,019;
20190905_070815;0,072;9,771;-1,669;-0,002;-0,005;-0,019;
20190905_070815;0,012;9,814;-1,688;-0,002;-0,005;-0,020;
20190905_070816;0,022;9,787;-1,678;-0,002;-0,004;-0,022;
20190905_070816;0,014;9,778;-1,686;-0,001;-0,005;-0,022;
20190905_070816;0,007;9,761;-1,688;-0,002;-0,004;-0,021;
20190905_070816;0,022;9,795;-1,686;-0,001;-0,004;-0,021;
20190905_070816;0,010;9,752;-1,669;-0,002;-0,004;-0,021;
20190905_070816;0,014;9,754;-1,671;-0,003;-0,005;-0,021;
20190905_070816;-0,007;9,766;-1,669;-0,003;-0,004;-0,021;
20190905_070816;0,000;9,756;-1,652;-0,001;-0,004;-0,021;
20190905_070816;-0,029;9,783;-1,676;-0,002;-0,004;-0,021;
20190905_070816;-0,010;9,742;-1,686;-0,002;-0,004;-0,020;
20190905_070817;-0,055;9,776;-1,664;-0,001;-0,004;-0,022;
20190905_070817;-0,029;9,797;-1,683;0,000;-0,005;-0,023;
20190905_070817;-0,019;9,792;-1,676;-0,001;-0,004;-0,024;
20190905_070817;-0,019;9,792;-1,688;-0,003;-0,006;-0,024;
20190905_070817;0,005;9,776;-1,676;-0,002;-0,005;-0,024;
20190905_070817;-0,022;9,749;-1,697;-0,002;-0,005;-0,025;
20190905_070817;-0,045;9,790;-1,676;-0,001;-0,006;-0,025;
20190905_070817;-0,029;9,776;-1,683;-0,001;-0,006;-0,024;
20190905_070817;-0,072;9,761;-1,688;0,000;-0,006;-0,025;
20190905_070818;-0,043;9,744;-1,662;-0,001;-0,007;-0,024;
20190905_070818;-0,038;9,795;-1,693;-0,001;-0,008;-0,024;
20190905_070818;-0,041;9,773;-1,642;-0,001;-0,007;-0,024;
20190905_070818;-0,014;9,843;-1,666;0,000;-0,007;-0,025;
20190905_070818;-0,017;9,797;-1,681;0,000;-0,008;-0,025;
20190905_070818;-0,036;9,795;-1,707;0,000;-0,009;-0,025;
20190905_070818;-0,062;9,814;-1,678;-0,002;-0,007;-0,024;
20190905_070818;-0,079;9,807;-1,690;-0,002;-0,008;-0,024;
20190905_070818;-0,024;9,795;-1,671;-0,002;-0,012;-0,025;
20190905_070818;-0,079;9,780;-1,717;-0,001;-0,011;-0,026;
20190905_070819;-0,077;9,749;-1,683;-0,002;-0,012;-0,027;
20190905_070819;-0,019;9,795;-1,714;-0,001;-0,011;-0,029;
20190905_070819;-0,029;9,728;-1,662;-0,007;-0,012;-0,029;
20190905_070819;-0,038;9,783;-1,693;-0,001;-0,012;-0,031;
20190905_070819;-0,067;9,716;-1,678;-0,004;-0,013;-0,030;
20190905_070819;-0,081;9,747;-1,659;-0,005;-0,013;-0,031;
20190905_070819;-0,010;9,673;-1,657;-0,006;-0,013;-0,029;
20190905_070819;-0,007;9,692;-1,683;-0,002;-0,011;-0,029;
20190905_070819;-0,036;9,692;-1,674;-0,004;-0,014;-0,031;
20190905_070819;-0,077;9,711;-1,669;-0,000;-0,006;-0,005;
20190905_070820;-0,010;9,689;-1,693;-0,000;-0,004;-0,004;
20190905_070820;-0,045;9,697;-1,659;-0,004;-0,004;-0,003;
20190905_070820;-0,010;9,670;-1,626;-0,001;-0,006;-0,004;
20190905_070820;-0,050;9,680;-1,647;-0,001;-0,005;-0,002;
20190905_070820;-0,069;9,625;-1,628;-0,004;-0,005;-0,002;
20190905_070820;-0,069;9,692;-1,642;-0,000;-0,005;-0,001;
20190905_070820;-0,045;9,658;-1,669;-0,003;-0,006;0,000;
20190905_070820;-0,026;9,682;-1,688;-0,001;-0,005;0,000;
20190905_070820;-0,084;9,682;-1,647;-0,004;-0,005;0,000;
20190905_070821;-0,017;9,639;-1,645;-0,001;-0,004;0,000;
20190905_070821;-0,048;9,656;-1,635;-0,002;-0,006;0,001;
20190905_070821;-0,017;9,665;-1,674;-0,003;-0,006;0,003;
20190905_070821;0,002;9,601;-1,633;-0,002;-0,006;0,003;
20190905_070821;0,002;9,606;-1,597;-0,002;-0,007;0,001;
20190905_070821;-0,010;9,622;-1,645;-0,002;-0,005;0,003;
20190905_070821;0,005;9,625;-1,607;-0,001;-0,006;0,003;
20190905_070821;-0,022;9,584;-1,640;-0,003;-0,006;0,004;
20190905_070821;-0,055;9,632;-1,642;-0,001;-0,006;0,003;
20190905_070821;-0,029;9,615;-1,659;-0,003;-0,005;0,005;
20190905_070822;-0,012;9,625;-1,652;-0,000;-0,006;0,004;
20190905_070822;0,010;9,625;-1,647;-0,002;-0,005;0,005;
20190905_070822;-0,038;9,634;-1,623;-0,000;-0,005;0,006;
20190905_070822;0,031;9,591;-1,645;-0,001;-0,005;0,004;
20190905_070822;0,012;9,577;-1,621;-0,002;-0,007;0,004;
20190905_070822;0,024;9,620;-1,597;-0,001;-0,007;0,005;
20190905_070822;-0,024;9,606;-1,652;-0,001;-0,006;0,005;
20190905_070822;-0,017;9,632;-1,645;-0,002;-0,006;0,006;
20190905_070822;0,029;9,615;-1,630;-0,003;-0,007;0,006;
20190905_070823;0,000;9,579;-1,650;-0,001;-0,005;0,006;
20190905_070823;-0,005;9,567;-1,654;-0,002;-0,005;0,008;
20190905_070823;-0,010;9,613;-1,630;-0,002;-0,005;0,008;
20190905_070823;-0,012;9,596;-1,623;-0,002;-0,004;0,008;
20190905_070823;-0,034;9,610;-1,676;-0,001;-0,004;0,009;
20190905_070823;-0,007;9,641;-1,638;-0,002;-0,006;0,011;
20190905_070823;-0,055;9,601;-1,638;-0,004;-0,004;0,012;
20190905_070823;-0,002;9,615;-1,626;-0,003;-0,005;0,014;
20190905_070823;-0,031;9,625;-1,638;-0,003;-0,006;0,012;
20190905_070823;-0,060;9,603;-1,604;-0,001;-0,005;0,012;
20190905_070824;-0,029;9,534;-1,635;-0,004;-0,004;0,013;
20190905_070824;-0,038;9,610;-1,654;-0,000;-0,003;0,012;
20190905_070824;0,007;9,591;-1,674;0,002;-0,005;0,013;
20190905_070824;-0,060;9,584;-1,676;-0,003;-0,004;0,014;
20190905_070824;-0,012;9,579;-1,633;-0,003;-0,003;0,014;
20190905_070824;0,012;9,577;-1,623;-0,000;-0,005;0,013;
20190905_070824;-0,024;9,591;-1,650;-0,000;-0,007;0,013;
20190905_070824;0,041;9,567;-1,664;-0,002;-0,005;0,012;
20190905_070824;-0,017;9,594;-1,642;-0,001;-0,007;0,011;
20190905_070825;-0,010;9,577;-1,628;0,002;-0,002;0,005;
20190905_070825;0,057;9,577;-1,618;0,001;-0,003;0,004;
20190905_070825;0,031;9,534;-1,623;0,002;-0,002;0,004;
20190905_070825;-0,014;9,574;-1,702;-0,001;-0,001;0,004;
20190905_070825;0,031;9,567;-1,638;-0,001;0,001;0,004;
20190905_070825;0,017;9,591;-1,611;0,005;0,001;0,004;
20190905_070825;0,005;9,620;-1,647;-0,000;-0,003;0,003;
20190905_070825;0,065;9,620;-1,611;0,001;-0,001;0,003;
20190905_070825;0,005;9,627;-1,659;0,001;-0,001;0,005;
20190905_070825;0,065;9,615;-1,621;-0,001;0,001;0,007;
20190905_070826;0,007;9,598;-1,611;-0,000;0,001;0,008;
20190905_070826;0,002;9,579;-1,640;-0,001;0,001;0,010;
20190905_070826;-0,043;9,596;-1,638;0,002;0,000;0,010;
20190905_070826;-0,012;9,601;-1,592;-0,004;0,002;0,012;
20190905_070826;-0,024;9,579;-1,638;0,002;0,001;0,012;
20190905_070826;-0,014;9,538;-1,611;-0,001;0,002;0,013;
20190905_070826;-0,043;9,548;-1,642;-0,000;0,001;0,014;
20190905_070826;-0,045;9,550;-1,642;-0,000;0,002;0,014;
20190905_070826;-0,007;9,572;-1,595;0,002;0,001;0,015;
20190905_070827;-0,007;9,558;-1,640;-0,001;0,004;0,015;
20190905_070827;-0,038;9,522;-1,633;-0,000;0,002;0,019;
20190905_070827;-0,053;9,548;-1,628;0,001;0,002;0,016;
20190905_070827;-0,014;9,546;-1,645;0,002;0,001;0,017;
20190905_070827;-0,024;9,589;-1,664;0,001;0,001;0,016;
20190905_070827;-0,005;9,560;-1,621;-0,000;0,001;0,016;
20190905_070827;0,019;9,608;-1,657;0,003;0,000;0,015;
20190905_070827;-0,036;9,601;-1,618;-0,001;-0,001;0,013;
20190905_070827;-0,081;9,594;-1,674;0,004;-0,004;0,015;
20190905_070827;0,000;9,637;-1,623;0,003;-0,002;0,015;
20190905_070828;-0,077;9,596;-1,693;0,003;-0,002;0,015;
20190905_070828;-0,065;9,541;-1,645;-0,005;0,001;0,015;
20190905_070828;-0,031;9,582;-1,587;-0,001;0,001;0,015;
20190905_070828;0,019;9,572;-1,640;0,006;0,000;0,013;
20190905_070828;0,010;9,538;-1,652;0,004;0,001;0,013;
20190905_070828;-0,007;9,507;-1,666;0,002;0,000;0,012;
20190905_070828;0,036;9,522;-1,633;-0,004;-0,004;0,011;
20190905_070828;-0,005;9,519;-1,647;0,006;-0,004;0,010;
20190905_070828;0,014;9,565;-1,674;0,003;0,001;0,008;
20190905_070829;0,060;9,560;-1,609;-0,003;-0,002;0,007;
20190905_070829;-0,019;9,570;-1,671;0,003;-0,004;0,005;
20190905_070829;0,038;9,608;-1,647;-0,000;-0,002;0,006;
20190905_070829;0,036;9,608;-1,633;0,002;-0,003;0,005;
20190905_070829;0,019;9,639;-1,650;0,001;-0,002;0,005;
20190905_070829;-0,019;9,594;-1,674;-0,003;-0,003;0,004;
20190905_070829;0,031;9,574;-1,664;-0,003;-0,003;0,005;
20190905_070829;0,053;9,555;-1,609;-0,001;-0,001;0,005;
20190905_070829;0,055;9,546;-1,647;-0,000;0,000;0,005;
20190905_070829;0,031;9,541;-1,609;0,001;-0,002;0,006;
20190905_070830;0,045;9,560;-1,659;-0,004;-0,002;-0,007;
20190905_070830;0,019;9,548;-1,607;0,000;-0,001;-0,005;
20190905_070830;-0,029;9,567;-1,659;-0,002;-0,003;-0,005;
20190905_070830;-0,041;9,512;-1,633;0,001;0,000;-0,005;
20190905_070830;0,019;9,527;-1,654;0,001;-0,001;-0,004;
20190905_070830;-0,017;9,527;-1,650;-0,002;0,000;-0,001;
20190905_070830;-0,007;9,522;-1,609;-0,002;0,000;-0,000;
20190905_070830;0,005;9,522;-1,604;0,001;0,000;-0,000;
20190905_070830;-0,045;9,541;-1,604;0,000;0,000;0,001;
20190905_070831;-0,019;9,524;-1,638;0,002;0,000;0,001;
20190905_070831;-0,031;9,495;-1,618;-0,003;0,002;0,003;
20190905_070831;0,002;9,462;-1,630;0,000;0,001;0,004;
20190905_070831;-0,026;9,510;-1,650;-0,001;0,001;0,004;
20190905_070831;-0,062;9,483;-1,630;-0,002;0,000;0,004;
20190905_070831;-0,017;9,505;-1,638;0,002;0,002;0,004;
20190905_070831;-0,050;9,479;-1,595;-0,002;0,002;0,005;
20190905_070831;-0,031;9,522;-1,662;0,003;0,000;0,005;
20190905_070831;-0,072;9,531;-1,640;-0,001;0,000;0,004;
20190905_070831;-0,010;9,560;-1,650;0,001;0,001;0,005;
20190905_070832;-0,050;9,534;-1,638;-0,002;0,001;0,004;
20190905_070832;-0,091;9,562;-1,681;0,002;-0,001;0,004;
20190905_070832;-0,007;9,522;-1,638;-0,001;0,001;0,004;
20190905_070832;-0,031;9,603;-1,678;0,001;-0,001;0,004;
20190905_070832;-0,031;9,582;-1,638;0,000;0,000;0,005;
20190905_070832;-0,019;9,620;-1,662;0,000;0,000;0,005;
20190905_070832;-0,038;9,543;-1,654;0,001;-0,002;0,004;
20190905_070832;-0,036;9,615;-1,688;0,001;-0,001;0,004;
20190905_070832;-0,043;9,567;-1,650;-0,001;-0,001;0,004;
20190905_070833;-0,019;9,574;-1,638;0,001;-0,002;0,004;
20190905_070833;-0,026;9,613;-1,678;0,001;-0,002;0,003;
20190905_070833;-0,002;9,622;-1,650;0,002;-0,002;0,003;
20190905_070833;-0,019;9,567;-1,669;0,002;0,000;0,003;
20190905_070833;-0,007;9,665;-1,683;0,001;-0,002;0,002;
20190905_070833;-0,062;9,632;-1,678;-0,004;0,000;0,003;
20190905_070833;-0,029;9,673;-1,700;0,007;-0,003;0,002;
20190905_070833;-0,005;9,670;-1,647;-0,007;-0,001;0,002;
20190905_070833;-0,005;9,689;-1,686;0,008;0,000;0,002;
20190905_070833;-0,007;9,701;-1,695;0,007;-0,002;-0,000;
20190905_070834;0,010;9,697;-1,686;-0,003;-0,003;0,001;
20190905_070834;0,012;9,725;-1,700;0,006;-0,003;-0,000;
20190905_070834;-0,019;9,720;-1,729;-0,005;-0,003;-0,001;
20190905_070834;-0,014;9,708;-1,686;0,008;0,001;-0,001;
20190905_070834;-0,024;9,747;-1,788;0,003;-0,001;-0,001;
20190905_070834;-0,026;9,704;-1,676;-0,002;-0,002;-0,000;
20190905_070834;0,002;9,687;-1,676;-0,003;-0,003;-0,001;
20190905_070834;-0,034;9,646;-1,702;-0,001;-0,001;-0,001;
20190905_070834;-0,010;9,675;-1,717;0,003;-0,002;-0,001;
20190905_070835;-0,036;9,661;-1,686;-0,005;-0,003;-0,001;
20190905_070835;-0,005;9,618;-1,693;0,000;-0,000;-0,002;
20190905_070835;-0,031;9,627;-1,695;-0,001;0,001;-0,003;
20190905_070835;-0,019;9,608;-1,669;0,000;-0,000;-0,003;
20190905_070835;-0,084;9,603;-1,690;-0,002;-0,001;-0,003;
20190905_070835;-0,038;9,517;-1,683;-0,004;-0,001;-0,002;
20190905_070835;0,014;9,574;-1,671;-0,001;-0,000;-0,002;
20190905_070835;-0,057;9,538;-1,642;-0,004;-0,001;-0,002;
20190905_070835;-0,043;9,567;-1,693;-0,002;0,001;-0,001;
20190905_070836;-0,065;9,586;-1,657;-0,002;-0,000;-0,001;
20190905_070836;-0,045;9,565;-1,676;-0,002;-0,000;-0,000;
20190905_070836;-0,031;9,538;-1,702;-0,001;-0,000;-0,001;
20190905_070836;-0,024;9,613;-1,690;-0,002;-0,000;-0,001;
20190905_070836;-0,005;9,529;-1,638;-0,003;-0,000;-0,001;
20190905_070836;-0,031;9,536;-1,657;-0,003;-0,001;-0,001;
20190905_070836;0,017;9,488;-1,650;-0,003;-0,000;-0,003;
20190905_070836;-0,002;9,538;-1,671;-0,001;-0,000;-0,001;
20190905_070836;-0,055;9,543;-1,640;-0,002;-0,001;-0,001;
20190905_070836;0,017;9,512;-1,664;-0,001;-0,001;-0,001;
20190905_070837;-0,012;9,479;-1,645;-0,003;-0,001;-0,001;
20190905_070837;-0,019;9,498;-1,662;-0,001;-0,002;-0,001;
20190905_070837;0,045;9,476;-1,662;-0,001;-0,001;-0,002;
20190905_070837;-0,029;9,474;-1,662;-0,002;-0,001;-0,001;
20190905_070837;0,074;9,469;-1,664;-0,001;-0,001;-0,004;
20190905_070837;-0,034;9,495;-1,686;-0,002;-0,002;-0,004;
20190905_070837;-0,019;9,476;-1,676;-0,001;-0,001;-0,003;
20190905_070837;-0,026;9,546;-1,671;-0,002;-0,002;-0,004;
20190905_070837;0,031;9,510;-1,654;-0,002;-0,000;-0,004;
20190905_070838;-0,026;9,565;-1,662;0,000;-0,002;-0,004;
20190905_070838;-0,005;9,548;-1,664;-0,004;-0,001;-0,002;
20190905_070838;-0,036;9,579;-1,678;-0,002;-0,001;-0,002;
20190905_070838;-0,034;9,512;-1,657;-0,001;-0,000;-0,001;
20190905_070838;-0,014;9,546;-1,681;0,000;-0,000;-0,002;
20190905_070838;0,005;9,546;-1,683;-0,001;-0,000;-0,000;
20190905_070838;-0,022;9,536;-1,657;-0,003;-0,000;-0,000;
20190905_070838;-0,026;9,570;-1,702;0,001;-0,000;-0,000;
20190905_070838;0,038;9,515;-1,674;0,000;-0,000;-0,000;
20190905_070838;-0,026;9,555;-1,662;-0,004;-0,001;0,001;
20190905_070839;-0,012;9,558;-1,671;-0,002;-0,001;-0,000;
20190905_070839;-0,031;9,603;-1,709;0,004;-0,000;-0,000;
20190905_070839;0,012;9,555;-1,683;-0,001;0,001;-0,000;
20190905_070839;-0,024;9,601;-1,714;-0,001;-0,000;-0,000;
20190905_070839;-0,024;9,656;-1,702;0,000;-0,000;0,001;
20190905_070839;-0,026;9,598;-1,683;0,000;-0,000;-0,000;
20190905_070839;-0,069;9,644;-1,707;-0,001;-0,000;-0,001;
20190905_070839;0,002;9,606;-1,695;-0,001;-0,001;-0,000;
20190905_070839;0,012;9,608;-1,695;-0,001;-0,001;0,001;
20190905_070840;-0,050;9,641;-1,729;0,000;-0,001;-0,000;
20190905_070840;0,014;9,658;-1,678;-0,003;-0,001;0,001;
20190905_070840;-0,050;9,677;-1,693;0,001;-0,000;0,003;
20190905_070840;-0,029;9,670;-1,707;0,001;-0,000;0,003;
20190905_070840;-0,062;9,692;-1,707;0,002;0,001;0,003;
20190905_070840;-0,050;9,670;-1,693;0,003;0,001;0,004;
20190905_070840;-0,041;9,694;-1,738;0,001;0,002;0,004;
20190905_070840;0,010;9,711;-1,733;0,004;-0,000;0,004;
20190905_070840;-0,010;9,735;-1,707;-0,000;-0,000;0,004;
20190905_070840;-0,031;9,687;-1,748;-0,000;0,002;0,004;
20190905_070841;-0,036;9,670;-1,712;-0,000;0,001;0,005;
20190905_070841;-0,072;9,653;-1,736;-0,002;0,001;0,005;
20190905_070841;-0,002;9,694;-1,736;0,002;0,002;0,005;
20190905_070841;-0,043;9,673;-1,717;-0,000;0,001;0,005;
20190905_070841;-0,045;9,675;-1,714;0,001;0,002;0,005;
20190905_070841;-0,065;9,675;-1,702;-0,000;0,001;0,005;
20190905_070841;-0,065;9,639;-1,705;-0,000;0,001;0,005;
20190905_070841;-0,043;9,608;-1,681;-0,002;-0,000;0,005;
20190905_070841;-0,045;9,579;-1,714;0,001;-0,000;0,006;
20190905_070842;-0,036;9,594;-1,664;-0,002;-0,000;0,006;
20190905_070842;-0,057;9,572;-1,705;0,002;0,001;0,006;
20190905_070842;0,000;9,582;-1,683;-0,002;0,001;0,007;
20190905_070842;-0,036;9,562;-1,707;0,002;0,002;0,005;
20190905_070842;-0,098;9,577;-1,674;-0,002;-0,000;0,006;
20190905_070842;-0,050;9,586;-1,678;-0,000;-0,000;0,006;
20190905_070842;-0,055;9,560;-1,707;-0,000;0,001;0,005;
20190905_070842;-0,017;9,582;-1,700;-0,000;-0,000;0,006;
20190905_070842;-0,053;9,586;-1,702;0,001;-0,000;0,006;
20190905_070842;-0,053;9,591;-1,678;0,001;-0,001;0,005;
20190905_070843;-0,041;9,548;-1,705;-0,000;-0,000;0,005;
20190905_070843;-0,024;9,548;-1,695;0,002;-0,000;0,004;
20190905_070843;-0,019;9,570;-1,688;-0,003;-0,000;0,005;
20190905_070843;-0,029;9,560;-1,686;0,001;-0,001;0,005;
20190905_070843;-0,005;9,550;-1,669;-0,000;-0,001;0,004;
20190905_070843;-0,024;9,534;-1,695;-0,002;-0,000;0,003;
20190905_070843;-0,007;9,586;-1,681;-0,000;-0,000;0,004;
20190905_070843;-0,024;9,546;-1,690;-0,002;-0,001;0,004;
20190905_070843;-0,065;9,584;-1,662;-0,000;-0,000;0,003;
20190905_070843;-0,045;9,543;-1,693;-0,000;-0,001;0,000;
20190905_070844;-0,038;9,548;-1,671;-0,002;-0,001;0,001;
20190905_070844;-0,019;9,546;-1,697;-0,000;-0,001;0,001;
20190905_070844;-0,019;9,577;-1,674;0,001;-0,000;0,001;
20190905_070844;-0,019;9,567;-1,657;0,002;-0,001;0,000;
20190905_070844;-0,002;9,579;-1,683;0,001;-0,000;0,001;
20190905_070844;-0,031;9,586;-1,709;0,001;-0,000;-0,001;
20190905_070844;0,024;9,613;-1,707;0,003;-0,001;0,000;
20190905_070844;-0,014;9,618;-1,700;0,001;-0,000;-0,001;
20190905_070844;-0,002;9,651;-1,714;0,002;-0,001;0,000;
20190905_070845;-0,031;9,699;-1,686;0,001;-0,000;-0,002;
20190905_070845;0,012;9,677;-1,702;0,002;-0,001;-0,001;
20190905_070845;-0,036;9,699;-1,731;0,004;-0,001;-0,001;
20190905_070845;-0,022;9,708;-1,748;0,002;0,001;-0,004;
20190905_070845;-0,045;9,787;-1,726;0,004;0,000;-0,004;
20190905_070845;-0,019;9,728;-1,733;0,004;0,000;-0,004;
20190905_070845;-0,041;9,816;-1,774;0,005;0,000;-0,004;
20190905_070845;-0,026;9,850;-1,741;0,005;0,000;-0,001;
20190905_070845;-0,026;9,852;-1,786;0,006;0,000;-0,003;
20190905_070845;-0,055;9,917;-1,765;0,004;0,002;-0,001;
20190905_070846;-0,014;9,965;-1,784;0,008;0,001;-0,001;
20190905_070846;-0,091;9,972;-1,779;0,004;0,002;-0,000;
20190905_070846;-0,050;10,089;-1,851;0,008;0,002;-0,000;
20190905_070846;-0,041;10,084;-1,846;0,007;0,002;0,001;
20190905_070846;-0,055;10,137;-1,846;0,007;0,002;0,002;
20190905_070846;-0,077;10,204;-1,884;0,006;0,001;0,002;
20190905_070846;-0,014;10,266;-1,865;0,009;0,001;0,002;
20190905_070846;-0,065;10,262;-1,832;0,006;0,002;0,002;
20190905_070846;-0,074;10,269;-1,867;0,007;0,000;0,003;
20190905_070847;-0,079;10,314;-1,889;0,007;0,002;0,002;
20190905_070847;-0,077;10,341;-1,882;0,007;0,000;0,003;
20190905_070847;-0,086;10,338;-1,906;0,008;0,001;0,003;
20190905_070847;-0,065;10,348;-1,894;0,005;0,001;0,002;
20190905_070847;-0,096;10,388;-1,875;0,007;0,000;0,003;
20190905_070847;-0,067;10,365;-1,887;0,008;0,000;0,002;
20190905_070847;-0,086;10,365;-1,925;0,005;0,000;0,002;
20190905_070847;-0,091;10,384;-1,894;0,005;0,000;0,002;
20190905_070847;-0,017;10,365;-1,951;0,007;0,002;0,001;
20190905_070847;-0,050;10,403;-1,925;0,007;0,000;0,001;
20190905_070848;-0,096;10,336;-1,930;0,004;0,000;0,001;
20190905_070848;-0,038;10,333;-1,858;0,006;0,000;-0,000;
20190905_070848;-0,072;10,336;-1,901;0,004;0,000;-0,001;
20190905_070848;-0,038;10,338;-1,908;0,003;0,000;-0,001;
20190905_070848;-0,089;10,312;-1,884;0,004;0,000;-0,001;
20190905_070848;-0,038;10,295;-1,879;0,002;-0,001;-0,000;
20190905_070848;-0,024;10,257;-1,872;0,004;-0,001;-0,001;
20190905_070848;-0,022;10,226;-1,879;0,002;-0,001;-0,003;
20190905_070848;-0,043;10,202;-1,867;0,001;-0,001;-0,003;
20190905_070849;-0,026;10,171;-1,882;0,001;0,000;-0,004;
20190905_070849;-0,029;10,113;-1,839;0,002;0,000;-0,004;
20190905_070849;-0,012;10,099;-1,827;0,002;-0,001;-0,004;
20190905_070849;-0,072;10,108;-1,829;0,001;-0,002;-0,004;
20190905_070849;-0,002;10,005;-1,817;0,002;0,000;-0,004;
20190905_070849;-0,022;10,005;-1,793;-0,000;0,000;-0,005;
20190905_070849;-0,072;9,969;-1,836;-0,003;-0,001;-0,005;
20190905_070849;-0,031;9,917;-1,779;-0,001;-0,001;-0,004;
20190905_070849;-0,031;9,867;-1,817;-0,000;0,000;-0,006;
20190905_070849;-0,048;9,869;-1,784;-0,003;-0,001;-0,005;
20190905_070850;-0,005;9,821;-1,777;-0,000;-0,001;-0,004;
20190905_070850;-0,038;9,778;-1,765;-0,002;0,000;-0,004;
20190905_070850;0,005;9,823;-1,738;0,002;0,000;-0,004;
20190905_070850;-0,062;9,787;-1,719;-0,001;0,001;-0,003;
20190905_070850;0,014;9,752;-1,767;0,001;0,000;-0,004;
20190905_070850;-0,043;9,744;-1,733;0,002;0,001;-0,005;
20190905_070850;-0,048;9,732;-1,750;-0,000;0,000;-0,004;
20190905_070850;-0,041;9,685;-1,757;0,003;0,001;-0,004;
20190905_070850;-0,038;9,713;-1,717;0,001;0,001;-0,004;
20190905_070851;-0,069;9,711;-1,738;0,002;0,000;-0,004;
20190905_070851;0,022;9,687;-1,738;-0,000;0,001;-0,004;
20190905_070851;-0,065;9,725;-1,733;0,001;0,001;-0,003;
20190905_070851;-0,031;9,685;-1,695;-0,001;0,003;-0,000;
20190905_070851;-0,062;9,675;-1,777;0,001;0,001;0,001;
20190905_070851;-0,038;9,656;-1,738;-0,002;0,001;0,001;
20190905_070851;-0,053;9,682;-1,724;-0,000;0,000;0,002;
20190905_070851;-0,031;9,668;-1,724;0,001;0,002;0,002;
20190905_070851;-0,043;9,610;-1,733;0,001;0,002;0,003;
20190905_070852;-0,043;9,697;-1,733;-0,001;0,002;0,002;
20190905_070852;-0,069;9,656;-1,719;-0,000;0,001;0,003;
20190905_070852;-0,031;9,606;-1,717;-0,000;0,001;0,002;
20190905_070852;-0,055;9,646;-1,726;-0,001;0,001;0,002;
20190905_070852;0,002;9,591;-1,724;-0,000;0,001;0,002;
20190905_070852;-0,031;9,610;-1,719;-0,000;0,000;0,003;
20190905_070852;-0,041;9,620;-1,719;0,002;0,002;0,002;
20190905_070852;-0,041;9,582;-1,729;-0,002;0,001;0,002;
20190905_070852;-0,022;9,582;-1,731;0,001;0,001;0,002;
20190905_070852;-0,079;9,567;-1,736;-0,000;-0,001;0,001;
20190905_070853;-0,034;9,531;-1,709;-0,000;0,001;0,001;
20190905_070853;-0,043;9,608;-1,736;-0,000;0,000;0,001;
20190905_070853;-0,026;9,574;-1,707;-0,002;0,002;0,001;
20190905_070853;-0,010;9,579;-1,697;0,001;0,001;-0,001;
20190905_070853;-0,024;9,594;-1,726;0,001;-0,001;-0,001;
20190905_070853;-0,045;9,541;-1,714;-0,003;0,000;-0,001;
20190905_070853;-0,014;9,596;-1,695;0,001;0,000;-0,003;
20190905_070853;-0,007;9,553;-1,712;0,001;0,000;-0,001;
20190905_070853;-0,045;9,538;-1,745;-0,000;0,000;-0,003;
20190905_070854;0,007;9,570;-1,719;-0,000;0,000;-0,004;
20190905_070854;0,014;9,546;-1,690;0,001;0,000;-0,003;
20190905_070854;-0,060;9,515;-1,729;0,001;0,000;-0,004;
20190905_070854;-0,005;9,529;-1,721;0,001;0,000;-0,003;
20190905_070854;-0,005;9,519;-1,686;-0,001;-0,002;-0,002;
20190905_070854;0,002;9,531;-1,741;0,003;0,000;-0,003;
20190905_070854;-0,010;9,493;-1,719;0,002;-0,002;-0,004;
20190905_070854;0,010;9,507;-1,714;0,001;-0,002;-0,003;
20190905_070854;-0,019;9,562;-1,721;-0,001;0,000;-0,003;
20190905_070855;-0,026;9,550;-1,697;0,001;-0,001;-0,002;
20190905_070855;-0,017;9,543;-1,717;0,003;-0,001;-0,002;
20190905_070855;-0,048;9,538;-1,724;-0,000;-0,001;-0,002;
20190905_070855;-0,034;9,527;-1,705;-0,001;0,000;-0,002;
20190905_070855;-0,017;9,594;-1,702;0,002;0,000;-0,002;
20190905_070855;-0,017;9,543;-1,750;0,001;0,000;-0,001;
20190905_070855;0,000;9,565;-1,714;0,001;0,001;-0,000;
20190905_070855;-0,084;9,574;-1,741;-0,000;0,001;-0,000;
20190905_070855;-0,048;9,570;-1,721;0,001;0,001;0,001;
20190905_070855;-0,026;9,558;-1,748;0,002;0,000;0,001;
20190905_070856;-0,050;9,591;-1,733;-0,001;0,002;0,001;
20190905_070856;-0,072;9,589;-1,743;-0,000;0,002;0,001;
20190905_070856;0,000;9,606;-1,753;0,001;0,001;0,002;
20190905_070856;-0,077;9,560;-1,738;0,001;0,001;0,003;
20190905_070856;-0,024;9,613;-1,745;0,003;0,001;0,003;
20190905_070856;-0,057;9,639;-1,714;0,001;0,001;0,004;
20190905_070856;0,000;9,594;-1,765;0,002;0,001;0,004;
