Timestamp;Accel_x;Accel_y;Accel_z;Gyro_x;Gyro_y;Gyro_z;
20190905_195351;1.516;5.040;8.028;0.304;-0.108;-0.026;
20190905_195351;1.161;5.344;8.832;-0.029;0.368;0.056;
20190905_195351;1.128;4.398;7.927;0.083;0.053;0.200;
20190905_195351;1.331;5.938;8.988;0.025;-0.917;0.626;
20190905_195351;3.886;5.272;3.409;0.529;-1.432;1.186;
20190905_195351;5.344;3.476;10.829;-2.081;-1.294;1.708;
20190905_195351;5.665;2.732;9.014;0.012;-1.281;1.455;
20190905_195351;7.065;1.389;4.879;1.317;-1.268;1.241;
20190905_195351;7.887;1.439;5.298;1.389;-0.495;0.197;
20190905_195352;7.654;1.741;3.481;1.773;-1.063;0.013;
20190905_195352;10.532;2.306;2.844;0.671;-0.914;-0.151;
20190905_195352;9.239;3.060;0.778;-0.042;-0.248;-0.009;
20190905_195352;9.021;3.618;1.760;-0.208;-0.219;-0.239;
20190905_195352;8.871;2.923;1.803;-0.527;-0.513;-0.208;
20190905_195352;8.483;3.259;3.845;-0.378;-0.314;0.105;
20190905_195352;8.727;3.445;0.658;0.140;-0.045;0.058;
20190905_195352;8.739;4.377;1.259;0.174;0.196;-0.117;
20190905_195352;8.495;4.118;0.294;0.179;0.041;-0.226;
20190905_195352;7.819;3.208;0.591;0.975;-0.150;-0.383;
20190905_195353;11.250;3.938;0.670;0.599;-0.327;-0.993;
20190905_195353;6.711;7.470;1.049;0.446;-0.617;-1.555;
20190905_195353;6.433;5.533;-2.459;1.263;-0.491;-1.318;
20190905_195353;4.786;8.222;-0.069;0.100;-0.288;-0.803;
20190905_195353;5.631;6.673;-1.951;0.406;-0.068;-0.176;
20190905_195353;3.740;9.313;-2.294;0.292;-0.114;-0.814;
20190905_195353;3.850;7.987;-3.445;1.567;-0.686;-0.365;
20190905_195353;4.920;6.153;-6.172;1.872;-0.597;0.200;
20190905_195353;2.629;6.919;-8.626;2.729;-1.582;-0.180;
20190905_195353;2.758;5.507;-7.290;0.458;-0.087;0.036;
20190905_195354;2.306;5.212;-8.559;0.163;-0.173;-0.313;
20190905_195354;1.944;6.254;-8.337;0.145;0.031;-0.078;
20190905_195354;2.586;5.674;-7.482;-1.155;0.338;-0.211;
20190905_195354;3.632;5.842;-6.500;-0.731;0.545;0.091;
20190905_195354;2.504;6.261;-5.411;-1.150;-0.122;-0.561;
20190905_195354;1.846;8.009;-4.748;-0.823;0.230;-0.339;
20190905_195354;2.830;8.475;-4.192;-0.013;0.909;0.056;
20190905_195354;1.372;9.754;-3.857;0.005;0.218;-0.505;
20190905_195354;0.582;8.677;-4.195;0.815;-0.297;-0.029;
20190905_195355;1.968;8.231;-6.474;0.108;-0.058;0.025;
20190905_195355;1.401;8.432;-4.800;0.009;0.011;0.024;
20190905_195355;1.741;8.203;-5.578;0.017;0.004;-0.065;
20190905_195355;1.767;8.238;-5.215;-0.075;-0.001;-0.007;
20190905_195355;1.748;8.375;-5.622;-0.370;0.125;-0.166;
20190905_195355;1.448;8.600;-4.396;-0.597;0.188;-0.488;
20190905_195355;1.039;9.038;-4.120;-0.185;0.144;-0.760;
20190905_195355;-0.005;9.076;-4.247;-0.193;0.129;-0.192;
20190905_195355;1.908;9.014;-2.998;-0.312;0.155;0.036;
20190905_195355;-1.049;9.206;-3.716;0.008;0.085;-0.424;
20190905_195356;-0.357;8.775;-3.709;0.010;0.050;-0.338;
20190905_195356;-0.503;9.290;-3.622;-0.019;0.011;-0.052;
20190905_195356;0.271;9.392;-3.740;0.022;-0.006;0.421;
20190905_195356;0.833;9.761;-3.740;-0.018;0.000;0.228;
20190905_195356;-0.148;8.672;-3.661;0.004;0.009;-0.197;
20190905_195356;-0.180;9.220;-3.764;0.009;0.001;-0.118;
20190905_195356;0.036;9.163;-3.812;0.007;0.001;0.007;
20190905_195356;0.177;10.192;-3.587;0.008;0.011;0.143;
20190905_195356;0.208;9.155;-3.778;0.004;0.004;-0.007;
20190905_195357;-0.397;11.214;-3.785;0.167;-0.011;0.041;
20190905_195357;-0.036;9.007;-3.654;0.034;-0.004;0.004;
20190905_195357;0.311;9.021;-4.041;-0.000;0.000;0.008;
20190905_195357;0.211;8.971;-3.972;-0.012;0.001;0.005;
20190905_195357;0.127;8.950;-3.869;-0.021;0.005;0.005;
20190905_195357;0.208;8.959;-3.950;0.003;0.003;0.005;
20190905_195357;0.249;8.935;-3.867;-0.001;-0.001;0.002;
20190905_195357;0.113;9.017;-3.840;0.006;-0.002;0.005;
20190905_195357;0.378;8.981;-3.836;0.004;0.000;0.005;
20190905_195358;0.093;9.081;-3.886;0.012;-0.002;0.005;
20190905_195358;0.120;8.962;-3.886;0.012;-0.002;0.006;
20190905_195358;0.359;8.985;-3.900;0.009;-0.001;0.005;
20190905_195358;0.273;9.014;-3.883;0.011;-0.002;0.004;
20190905_195358;0.232;9.019;-3.950;0.009;-0.004;0.003;
20190905_195358;0.194;9.052;-3.934;0.019;-0.005;-0.000;
20190905_195358;0.060;9.124;-4.037;-0.006;-0.001;-0.001;
20190905_195358;0.254;9.055;-3.852;-0.011;0.000;-0.001;
20190905_195358;0.283;8.995;-3.931;0.022;-0.005;-0.001;
20190905_195358;0.170;9.002;-3.977;0.025;-0.006;-0.003;
20190905_195359;0.184;9.079;-4.137;0.030;-0.003;-0.005;
20190905_195359;0.160;8.947;-3.926;-0.015;0.000;-0.001;
20190905_195359;0.261;9.026;-3.984;0.008;-0.002;-0.004;
20190905_195359;0.268;8.983;-3.967;0.003;-0.003;-0.001;
20190905_195359;0.218;8.990;-3.950;-0.000;-0.001;-0.001;
20190905_195359;0.237;8.964;-4.001;0.007;-0.003;-0.000;
20190905_195359;0.220;9.021;-3.972;0.004;-0.001;-0.000;
20190905_195359;0.223;8.969;-3.962;0.009;-0.002;-0.001;
20190905_195359;0.261;9.012;-4.029;0.006;-0.002;-0.000;
20190905_195400;0.225;9.021;-4.003;-0.005;-0.001;0.001;
20190905_195400;0.232;8.976;-3.941;-0.001;0.000;0.001;
20190905_195400;0.268;8.997;-3.936;-0.001;-0.002;0.002;
20190905_195400;0.232;8.918;-3.852;-0.006;-0.002;0.002;
20190905_195400;0.290;8.988;-3.934;-0.008;0.000;0.002;
20190905_195400;0.247;8.978;-4.013;0.002;0.001;0.004;
20190905_195400;0.227;8.981;-4.022;0.003;0.001;0.002;
20190905_195400;0.254;8.969;-3.970;0.003;0.000;0.004;
20190905_195400;0.249;8.959;-3.982;0.016;-0.001;0.005;
20190905_195400;0.144;8.962;-3.922;0.006;0.003;-0.000;
20190905_195401;0.247;8.935;-3.907;0.006;-0.001;0.002;
20190905_195401;0.225;8.978;-3.931;-0.005;0.003;0.003;
20190905_195401;0.242;8.985;-3.948;0.006;0.000;0.001;
20190905_195401;0.194;8.995;-3.950;-0.006;0.003;0.003;
20190905_195401;0.304;8.909;-3.958;0.003;0.001;0.002;
20190905_195401;0.230;8.942;-3.998;0.024;-0.004;0.001;
20190905_195401;0.314;8.899;-3.857;0.001;-0.001;0.006;
20190905_195401;0.218;8.902;-3.824;-0.033;0.005;0.004;
20190905_195401;0.220;8.966;-3.831;-0.027;0.006;0.002;
20190905_195402;0.170;8.978;-3.883;-0.008;0.005;-0.000;
20190905_195402;0.170;8.964;-3.953;0.011;0.003;0.003;
20190905_195402;0.187;8.985;-3.847;-0.005;0.004;0.003;
20190905_195402;0.196;8.983;-3.802;0.005;-0.001;0.002;
20190905_195402;0.215;8.981;-3.838;0.003;0.001;0.002;
20190905_195402;0.251;9.031;-3.768;-0.001;0.000;0.001;
20190905_195402;0.225;9.031;-4.120;0.049;-0.006;-0.000;
20190905_195402;0.232;9.021;-4.094;0.050;-0.003;-0.001;
20190905_195402;0.232;8.923;-3.886;-0.028;0.006;0.008;
20190905_195402;0.388;8.993;-3.936;0.015;0.000;0.008;
20190905_195403;0.230;8.997;-3.929;0.018;0.000;0.006;
20190905_195403;0.227;8.938;-3.862;0.008;0.000;0.004;
20190905_195403;0.148;8.906;-3.826;0.005;-0.001;0.001;
20190905_195403;0.170;8.909;-3.879;0.009;0.000;0.002;
20190905_195403;0.256;8.969;-3.938;-0.007;0.001;0.002;
20190905_195403;0.189;8.890;-3.826;-0.007;0.001;0.001;
20190905_195403;0.218;8.873;-3.783;-0.011;0.004;0.002;
20190905_195403;0.201;8.894;-3.891;0.005;0.001;0.004;
20190905_195403;0.244;8.926;-3.888;0.009;0.000;0.003;
20190905_195404;0.247;8.813;-3.821;0.009;0.000;0.003;
20190905_195404;0.189;8.933;-4.010;0.004;-0.001;0.004;
20190905_195404;0.230;8.878;-3.826;-0.002;0.004;0.005;
20190905_195404;0.199;8.928;-3.903;-0.000;0.001;0.004;
20190905_195404;0.239;8.954;-3.929;-0.005;0.001;0.006;
20190905_195404;0.206;8.988;-3.953;-0.002;0.003;0.007;
20190905_195404;0.223;8.899;-3.840;0.001;0.003;0.005;
20190905_195404;0.201;8.966;-3.910;0.007;0.000;0.004;
20190905_195404;0.235;8.928;-3.847;0.001;0.003;0.005;
20190905_195404;0.218;8.921;-3.915;0.009;0.000;0.006;
20190905_195405;0.122;8.916;-3.852;0.005;0.001;0.004;
20190905_195405;0.136;8.942;-3.867;0.006;0.000;0.005;
20190905_195405;0.184;8.921;-3.840;-0.001;0.000;0.006;
20190905_195405;0.239;8.964;-3.859;-0.001;0.000;0.005;
20190905_195405;0.213;8.957;-3.881;0.001;0.000;0.004;
20190905_195405;0.124;8.904;-3.919;0.001;0.000;0.003;
20190905_195405;0.156;8.914;-3.864;0.001;-0.001;0.002;
20190905_195405;0.278;8.916;-3.819;-0.000;-0.002;0.004;
20190905_195405;0.218;8.818;-3.869;-0.001;-0.001;0.002;
20190905_195406;0.244;8.890;-3.879;0.002;0.000;0.002;
20190905_195406;0.199;8.825;-3.847;-0.002;0.000;0.004;
20190905_195406;0.256;8.887;-3.886;0.003;0.000;0.003;
20190905_195406;0.381;8.863;-3.771;-0.015;0.005;0.003;
20190905_195406;0.323;8.911;-3.869;0.001;0.000;0.004;
20190905_195406;0.206;8.868;-3.766;-0.010;0.000;-0.000;
20190905_195406;0.201;8.981;-3.864;-0.006;0.001;-0.000;
20190905_195406;0.160;8.902;-3.795;-0.006;0.001;-0.000;
20190905_195406;0.266;8.978;-3.840;0.001;-0.002;0.002;
20190905_195407;0.232;9.036;-3.828;-0.000;0.000;0.001;
20190905_195407;0.239;8.930;-3.857;-0.000;-0.001;0.003;
20190905_195407;0.220;8.873;-3.797;-0.006;0.000;0.002;
20190905_195407;0.211;8.894;-3.821;0.003;0.000;0.004;
20190905_195407;0.232;8.954;-3.814;0.005;-0.001;0.005;
20190905_195407;0.254;8.983;-3.833;0.005;0.000;0.005;
20190905_195407;0.376;9.038;-3.855;-0.000;0.001;0.005;
20190905_195407;0.390;8.981;-3.907;0.004;-0.001;0.007;
20190905_195407;0.326;8.954;-3.761;0.001;0.000;0.004;
20190905_195407;0.091;8.983;-3.855;-0.007;0.003;0.003;
20190905_195408;0.249;8.981;-3.883;0.003;-0.000;-0.001;
20190905_195408;0.285;9.007;-3.912;0.013;-0.000;0.003;
20190905_195408;0.330;8.985;-3.922;0.004;-0.000;0.001;
20190905_195408;-0.010;9.153;-4.154;-0.042;0.009;0.002;
20190905_195408;-0.010;9.129;-4.058;-0.014;0.004;-0.003;
20190905_195408;0.297;9.093;-3.946;0.010;-0.000;-0.001;
20190905_195408;0.321;9.225;-4.005;0.008;-0.000;-0.003;
20190905_195408;0.225;9.172;-3.929;0.007;0.001;-0.004;
20190905_195408;0.213;9.196;-3.912;0.014;-0.001;-0.003;
20190905_195409;0.259;9.182;-3.958;0.007;-0.001;-0.003;
20190905_195409;0.158;9.163;-3.924;0.003;-0.000;-0.004;
20190905_195409;0.211;9.165;-3.924;-0.003;-0.001;-0.006;
20190905_195409;0.256;9.160;-3.912;0.003;0.001;-0.004;
20190905_195409;0.223;9.026;-3.883;0.004;0.001;-0.004;
20190905_195409;0.163;8.758;-3.924;0.007;0.001;-0.001;
20190905_195409;0.081;9.218;-4.027;0.015;0.002;-0.002;
20190905_195409;0.278;8.993;-3.898;0.018;-0.001;-0.001;
20190905_195409;0.285;9.120;-3.768;-0.024;-0.003;-0.004;
20190905_195409;0.184;9.007;-3.828;-0.007;-0.000;-0.004;
20190905_195410;0.218;9.122;-3.905;0.002;0.001;-0.002;
20190905_195410;0.299;9.160;-3.926;0.004;-0.000;-0.001;
20190905_195410;0.165;9.182;-3.907;0.000;0.001;-0.003;
20190905_195410;0.204;9.275;-3.917;0.002;0.001;-0.003;
20190905_195410;0.342;9.163;-3.938;0.006;-0.000;-0.002;
20190905_195410;0.323;9.256;-3.926;0.003;0.001;-0.002;
20190905_195410;0.273;9.213;-3.852;0.008;-0.000;-0.001;
20190905_195410;0.263;9.143;-3.833;0.000;-0.000;-0.003;
20190905_195410;0.263;9.201;-3.893;-0.002;-0.000;-0.003;
20190905_195410;0.278;9.122;-3.802;-0.003;0.001;-0.002;
20190905_195411;0.259;9.110;-3.864;0.004;0.001;0.001;
20190905_195411;0.184;9.112;-3.840;0.000;0.001;-0.001;
20190905_195411;0.249;9.045;-3.859;-0.004;0.002;-0.002;
20190905_195411;0.275;9.036;-3.771;0.000;0.001;-0.001;
20190905_195411;0.213;8.990;-3.764;0.002;-0.000;-0.001;
20190905_195411;0.237;9.055;-3.773;-0.002;0.001;0.001;
20190905_195411;0.146;9.009;-3.742;-0.004;0.001;-0.001;
20190905_195411;0.194;8.988;-3.795;0.002;-0.000;-0.001;
20190905_195411;0.199;8.964;-3.790;0.007;-0.000;0.002;
20190905_195411;0.201;8.993;-3.792;0.006;0.001;0.003;
20190905_195412;0.239;9.045;-3.788;0.006;0.001;0.003;
20190905_195412;0.199;9.038;-3.819;-0.006;0.002;0.001;
20190905_195412;0.273;8.978;-3.737;0.002;0.001;-0.001;
20190905_195412;0.259;8.995;-3.807;-0.001;-0.000;0.002;
20190905_195412;0.192;8.966;-3.757;0.000;-0.000;-0.001;
20190905_195412;0.235;8.969;-3.783;0.002;-0.001;-0.001;
20190905_195412;0.266;8.983;-3.759;-0.001;-0.001;-0.001;
20190905_195412;0.213;8.950;-3.790;0.006;-0.001;-0.003;
20190905_195412;0.230;8.945;-3.773;0.004;-0.001;-0.001;
20190905_195413;0.177;8.926;-3.768;0.000;-0.001;-0.004;
20190905_195413;0.223;8.983;-3.785;0.004;-0.002;-0.001;
20190905_195413;0.256;8.921;-3.757;0.005;-0.002;-0.002;
20190905_195413;0.237;8.904;-3.776;0.004;-0.003;-0.002;
20190905_195413;0.239;8.950;-3.790;0.007;-0.001;-0.001;
20190905_195413;0.302;8.914;-3.745;0.006;-0.002;-0.001;
20190905_195413;0.249;8.926;-3.792;-0.004;-0.002;-0.002;
20190905_195413;0.235;8.935;-3.783;0.001;-0.002;-0.002;
20190905_195413;0.254;8.938;-3.800;-0.004;-0.001;-0.003;
20190905_195413;0.266;8.887;-3.759;-0.005;-0.002;-0.002;
20190905_195414;0.194;8.969;-3.816;-0.009;0.000;-0.002;
20190905_195414;0.220;8.854;-3.670;-0.007;-0.002;-0.003;
20190905_195414;0.204;8.916;-3.826;0.001;-0.002;-0.003;
20190905_195414;0.311;8.930;-3.778;0.007;-0.002;-0.003;
20190905_195414;0.259;8.866;-3.771;0.003;-0.002;-0.003;
20190905_195414;0.268;8.954;-3.800;0.005;-0.002;-0.002;
20190905_195414;0.201;8.906;-3.790;0.009;-0.001;-0.002;
20190905_195414;0.239;8.873;-3.819;0.014;-0.002;-0.001;
20190905_195414;0.242;8.923;-3.871;0.007;-0.001;0.000;
20190905_195415;0.237;8.873;-3.733;-0.006;0.000;-0.002;
20190905_195415;0.225;8.997;-3.824;0.013;-0.003;-0.001;
20190905_195415;0.304;8.873;-3.910;0.024;-0.002;0.000;
20190905_195415;0.242;8.882;-3.800;-0.005;-0.002;-0.002;
20190905_195415;0.247;8.906;-3.852;0.001;-0.001;0.000;
20190905_195415;0.160;8.847;-3.814;0.009;0.000;0.000;
20190905_195415;0.227;8.868;-3.876;0.021;0.000;0.001;
20190905_195415;0.204;8.930;-3.938;0.017;0.002;0.001;
20190905_195415;0.237;8.815;-4.068;0.010;-0.001;0.000;
20190905_195415;0.249;8.906;-3.962;-0.007;0.002;0.001;
20190905_195416;0.247;8.911;-3.912;-0.022;0.003;0.002;
20190905_195416;0.235;8.885;-3.764;-0.003;0.003;0.001;
20190905_195416;0.211;8.928;-3.922;0.036;0.000;0.001;
20190905_195416;0.206;8.930;-3.864;0.041;0.004;0.001;
20190905_195416;0.211;8.885;-3.970;-0.001;0.002;0.000;
20190905_195416;0.220;8.882;-3.962;-0.009;-0.001;0.000;
20190905_195416;0.199;8.923;-3.984;0.003;0.002;0.000;
20190905_195416;0.192;8.909;-3.967;-0.002;0.000;0.000;
20190905_195416;0.266;9.012;-4.027;0.013;-0.001;0.002;
20190905_195417;0.249;8.911;-3.986;-0.007;-0.001;0.000;
20190905_195417;0.225;8.882;-3.955;-0.003;-0.002;0.000;
20190905_195417;0.275;8.880;-3.948;0.002;-0.001;0.001;
20190905_195417;0.189;8.868;-3.922;-0.001;-0.001;-0.001;
20190905_195417;0.261;8.952;-4.010;0.003;-0.001;0.001;
20190905_195417;0.292;8.954;-4.001;-0.001;0.002;0.001;
20190905_195417;0.223;8.983;-3.974;0.005;0.000;0.001;
20190905_195417;0.220;8.926;-4.010;0.003;0.000;-0.001;
20190905_195417;0.247;8.966;-3.986;0.004;0.000;0.001;
20190905_195418;0.251;8.914;-3.991;0.002;0.002;0.000;
20190905_195418;0.180;8.938;-4.015;-0.002;0.000;-0.001;
20190905_195418;0.206;9.019;-4.008;0.001;0.000;-0.001;
20190905_195418;0.230;9.038;-3.996;-0.001;0.000;-0.001;
20190905_195418;0.328;9.043;-4.039;0.002;-0.001;0.001;
20190905_195418;0.208;9.050;-4.032;0.001;-0.002;0.000;
20190905_195418;0.287;9.074;-4.041;-0.004;-0.002;-0.001;
20190905_195418;0.254;9.002;-3.984;-0.002;-0.002;-0.001;
20190905_195418;0.242;9.002;-4.005;-0.001;-0.001;-0.002;
20190905_195418;0.259;9.060;-4.032;0.001;-0.001;-0.002;
20190905_195419;0.230;8.997;-4.051;0.001;-0.001;-0.002;
20190905_195419;0.263;9.029;-4.034;-0.001;-0.002;-0.002;
20190905_195419;0.287;9.019;-4.001;-0.001;0.000;-0.002;
20190905_195419;0.273;8.993;-3.948;-0.002;-0.001;-0.001;
20190905_195419;0.278;8.928;-3.970;-0.001;-0.002;-0.002;
20190905_195419;0.316;8.997;-3.984;0.001;-0.002;-0.002;
20190905_195419;0.251;8.981;-3.977;-0.003;0.000;-0.003;
20190905_195419;0.278;8.985;-3.946;-0.004;-0.002;-0.003;
20190905_195419;0.266;8.962;-3.929;0.004;-0.002;-0.003;
20190905_195420;0.256;9.031;-3.979;0.004;-0.001;-0.002;
20190905_195420;0.232;8.993;-3.926;-0.001;0.000;-0.004;
20190905_195420;0.247;9.041;-3.950;-0.001;0.000;-0.005;
20190905_195420;0.347;9.000;-3.936;-0.003;0.000;-0.003;
20190905_195420;0.129;9.026;-3.929;-0.002;0.000;-0.002;
20190905_195420;0.232;9.038;-3.967;0.001;0.000;0.000;
20190905_195420;0.266;9.021;-3.955;0.001;0.000;0.000;
20190905_195420;0.311;8.952;-3.893;0.004;-0.001;-0.001;
20190905_195420;0.204;8.981;-3.903;0.005;0.000;0.000;
20190905_195420;0.141;9.009;-3.900;0.003;0.000;0.000;
20190905_195421;0.208;8.976;-3.883;0.001;0.000;0.002;
20190905_195421;0.254;8.873;-3.855;0.003;0.000;0.001;
20190905_195421;0.259;9.014;-3.910;0.005;-0.001;0.004;
20190905_195421;0.239;8.969;-3.874;0.002;-0.001;0.002;
20190905_195421;0.247;9.033;-3.919;-0.002;-0.001;0.003;
20190905_195421;0.242;9.124;-3.958;-0.003;0.000;0.001;
20190905_195421;0.304;9.048;-3.912;0.005;-0.003;-0.001;
20190905_195421;0.261;9.002;-3.836;0.006;-0.003;-0.001;
20190905_195421;0.230;9.029;-3.831;0.009;-0.001;-0.002;
20190905_195422;0.249;9.031;-3.838;0.002;-0.003;-0.004;
20190905_195422;0.292;9.024;-3.819;0.003;-0.003;-0.004;
20190905_195422;0.318;8.997;-3.831;0.005;-0.002;-0.004;
20190905_195422;0.340;9.021;-3.766;0.001;-0.002;-0.004;
20190905_195422;0.268;8.988;-3.843;-0.001;-0.002;-0.005;
20190905_195422;0.189;8.997;-3.804;0.002;-0.001;-0.005;
20190905_195422;0.271;8.985;-3.785;0.002;-0.003;-0.004;
20190905_195422;0.244;8.926;-3.802;-0.006;0.000;-0.005;
20190905_195422;0.230;8.957;-3.761;0.003;-0.001;-0.002;
20190905_195422;0.239;8.902;-3.723;-0.008;0.000;-0.002;
20190905_195423;0.237;8.892;-3.768;-0.001;0.000;-0.002;
20190905_195423;0.225;8.820;-3.673;0.002;-0.001;-0.001;
20190905_195423;0.256;8.844;-3.706;-0.004;-0.001;-0.001;
20190905_195423;0.242;8.830;-3.766;-0.008;0.002;0.001;
20190905_195423;0.259;8.748;-3.661;-0.002;0.002;0.000;
20190905_195423;0.215;8.768;-3.625;-0.005;0.002;0.001;
20190905_195423;0.251;8.784;-3.639;-0.003;0.000;0.001;
20190905_195423;0.285;8.753;-3.575;0.005;0.000;0.001;
20190905_195423;0.247;8.784;-3.668;0.002;0.000;0.000;
20190905_195424;0.232;8.760;-3.658;-0.008;0.002;0.000;
20190905_195424;0.220;8.681;-3.620;0.004;-0.001;-0.001;
20190905_195424;0.230;8.665;-3.673;0.007;-0.001;-0.001;
20190905_195424;0.180;8.633;-3.515;-0.005;0.000;-0.001;
20190905_195424;0.259;8.660;-3.584;0.006;0.000;-0.001;
20190905_195424;0.230;8.636;-3.496;-0.005;-0.002;-0.002;
20190905_195424;0.271;8.631;-3.481;0.001;-0.001;-0.002;
20190905_195424;0.218;8.617;-3.543;0.001;-0.001;-0.003;
20190905_195424;0.268;8.607;-3.428;0.007;-0.002;-0.003;
20190905_195424;0.160;8.660;-3.572;0.007;-0.002;-0.001;
20190905_195425;0.158;8.674;-3.579;-0.003;-0.002;-0.003;
20190905_195425;0.211;8.744;-3.496;0.008;-0.001;0.000;
20190905_195425;0.192;8.748;-3.606;-0.005;-0.001;-0.002;
20190905_195425;0.283;8.815;-3.625;0.002;0.002;0.000;
20190905_195425;0.194;8.758;-3.500;0.013;-0.001;0.001;
20190905_195425;0.158;8.832;-3.570;-0.001;-0.001;-0.001;
20190905_195425;0.182;8.770;-3.663;-0.004;0.000;0.001;
20190905_195425;0.153;8.830;-3.615;0.005;-0.002;0.000;
20190905_195425;0.249;8.871;-3.512;0.011;-0.002;0.000;
20190905_195426;0.172;8.818;-3.462;-0.003;-0.001;0.001;
20190905_195426;0.136;8.892;-3.615;0.006;-0.002;0.000;
20190905_195426;0.156;8.717;-3.402;0.011;-0.003;-0.002;
20190905_195426;0.199;8.825;-3.508;0.005;-0.003;-0.003;
20190905_195426;0.175;8.823;-3.534;0.004;-0.003;-0.002;
20190905_195426;0.194;8.854;-3.615;-0.001;-0.002;-0.002;
20190905_195426;0.247;9.019;-3.646;0.001;-0.001;-0.002;
20190905_195426;0.163;8.899;-3.639;0.002;-0.003;-0.003;
20190905_195426;0.347;8.847;-3.591;0.004;-0.003;0.000;
20190905_195426;0.306;8.909;-3.668;0.012;-0.001;0.000;
20190905_195427;0.239;8.789;-3.601;0.002;-0.002;-0.003;
20190905_195427;0.172;8.950;-3.670;0.005;-0.002;-0.001;
20190905_195427;0.278;9.050;-3.591;0.008;-0.002;0.001;
20190905_195427;0.369;8.962;-3.579;0.004;-0.002;0.000;
20190905_195427;0.081;8.959;-3.572;0.013;-0.001;0.000;
20190905_195427;0.050;8.995;-3.661;0.006;-0.002;-0.001;
20190905_195427;0.091;8.976;-3.699;0.002;-0.001;-0.001;
20190905_195427;0.208;9.017;-3.663;0.006;-0.001;0.001;
20190905_195427;0.225;8.988;-3.670;0.010;-0.001;0.001;
20190905_195427;0.285;8.981;-3.630;0.005;-0.001;0.001;
20190905_195428;0.338;9.007;-3.608;0.014;-0.002;0.000;
20190905_195428;0.036;8.885;-3.699;0.006;-0.001;-0.001;
20190905_195428;0.206;9.108;-3.634;0.009;-0.002;-0.001;
20190905_195428;0.218;8.981;-3.713;0.007;0.000;0.000;
20190905_195428;0.156;8.995;-3.625;0.001;-0.002;-0.003;
20190905_195428;0.271;9.048;-3.737;0.005;-0.002;-0.001;
20190905_195428;0.309;8.950;-3.725;0.004;-0.002;-0.003;
20190905_195428;0.266;9.232;-3.701;0.017;-0.002;-0.002;
20190905_195428;0.254;9.074;-3.646;0.003;-0.002;-0.002;
20190905_195429;0.328;9.103;-3.661;-0.001;-0.002;-0.001;
20190905_195429;0.294;9.151;-3.776;0.007;-0.002;0.000;
20190905_195429;0.333;9.057;-3.677;0.006;-0.001;-0.001;
20190905_195429;0.201;9.110;-3.797;0.010;0.002;0.001;
20190905_195429;0.235;8.959;-3.673;-0.011;0.002;-0.001;
20190905_195429;0.194;9.105;-3.747;0.008;0.000;0.002;
20190905_195429;0.297;9.045;-3.692;-0.001;0.000;-0.000;
20190905_195429;0.160;9.100;-3.785;0.003;0.001;-0.000;
20190905_195429;0.170;9.117;-3.768;-0.007;0.001;0.001;
20190905_195430;0.283;9.189;-3.759;-0.007;0.000;-0.002;
20190905_195430;0.285;9.208;-3.713;-0.008;0.001;-0.000;
20190905_195430;0.256;9.177;-3.785;-0.004;0.001;-0.000;
20190905_195430;0.180;9.112;-3.656;-0.000;0.002;0.003;
20190905_195430;0.357;9.261;-3.768;0.006;0.001;0.003;
20190905_195430;0.381;9.019;-3.651;-0.009;0.001;0.001;
20190905_195430;0.414;9.122;-3.759;0.002;0.001;0.002;
20190905_195430;0.251;9.175;-3.785;0.005;0.001;0.002;
20190905_195430;0.223;9.304;-3.701;0.003;0.001;0.003;
20190905_195430;0.302;9.124;-3.768;-0.001;0.002;0.001;
20190905_195431;0.268;9.131;-3.749;0.003;0.000;0.002;
20190905_195431;0.280;9.031;-3.766;0.001;0.001;-0.000;
20190905_195431;0.328;9.313;-3.821;0.004;0.001;0.002;
20190905_195431;0.285;9.297;-3.804;-0.004;0.002;-0.002;
20190905_195431;0.271;9.050;-3.773;-0.004;0.001;0.001;
20190905_195431;0.318;9.163;-3.788;-0.005;0.001;0.002;
20190905_195431;0.213;9.323;-3.859;0.005;0.002;0.001;
20190905_195431;0.285;9.170;-3.814;0.004;-0.001;-0.000;
20190905_195431;0.350;9.163;-3.828;-0.008;0.002;-0.000;
20190905_195432;0.409;9.163;-3.828;0.003;0.000;0.002;
20190905_195432;0.187;9.005;-3.745;0.001;0.002;0.001;
20190905_195432;0.208;9.117;-3.766;-0.000;0.003;0.002;
20190905_195432;0.170;9.076;-3.804;-0.000;0.000;-0.000;
20190905_195432;0.551;9.012;-3.852;0.004;0.000;0.002;
20190905_195432;0.254;9.170;-3.859;-0.001;0.002;0.001;
20190905_195432;0.213;9.002;-3.771;-0.004;0.002;0.002;
20190905_195432;0.144;9.012;-3.730;0.001;0.002;-0.000;
20190905_195432;0.347;9.160;-3.824;0.006;0.003;0.001;
20190905_195432;0.311;9.275;-3.814;-0.000;0.001;-0.000;
20190905_195433;0.383;9.134;-3.900;0.008;0.001;-0.000;
20190905_195433;0.196;9.153;-3.718;0.010;0.001;0.001;
20190905_195433;0.290;9.177;-3.850;0.007;0.003;0.003;
20190905_195433;0.170;9.285;-3.857;0.001;0.002;0.002;
20190905_195433;0.201;9.093;-3.754;0.002;0.001;-0.001;
20190905_195433;0.220;9.225;-3.809;0.007;-0.001;-0.000;
20190905_195433;0.285;9.266;-3.938;0.001;0.000;-0.001;
20190905_195433;0.199;9.227;-3.907;0.006;0.002;0.003;
20190905_195433;0.199;9.278;-3.673;-0.000;0.000;-0.000;
20190905_195434;0.259;9.237;-3.862;0.005;0.004;0.004;
20190905_195434;0.184;8.930;-3.764;-0.004;0.004;0.003;
20190905_195434;0.426;9.108;-3.737;-0.006;0.001;0.001;
20190905_195434;0.172;9.167;-3.879;0.006;0.001;0.003;
20190905_195434;0.280;9.179;-3.792;0.009;0.001;0.005;
20190905_195434;0.239;9.160;-3.864;0.005;0.002;0.003;
20190905_195434;0.251;9.100;-3.943;-0.001;0.001;0.003;
20190905_195434;0.024;9.342;-3.972;0.011;0.002;0.003;
20190905_195434;0.213;9.072;-3.903;-0.008;0.002;-0.000;
20190905_195434;0.235;9.273;-4.032;0.006;0.002;0.004;
20190905_195435;0.352;9.500;-3.917;0.012;0.001;0.003;
20190905_195435;0.352;9.220;-3.843;0.001;0.001;0.002;
20190905_195435;0.148;9.390;-4.022;0.009;0.001;0.001;
20190905_195435;0.187;9.146;-3.977;-0.010;0.001;-0.002;
20190905_195435;0.132;9.263;-3.938;0.009;0.001;-0.000;
20190905_195435;0.443;9.481;-3.974;0.006;0.000;-0.001;
20190905_195435;0.364;9.179;-4.082;-0.000;0.002;0.002;
20190905_195435;0.086;9.459;-3.996;0.005;0.001;-0.000;
20190905_195435;0.484;9.352;-4.147;0.002;-0.001;-0.001;
20190905_195436;0.242;9.210;-4.063;0.008;0.001;-0.002;
20190905_195436;0.510;9.708;-4.161;0.009;0.001;0.001;
20190905_195436;0.460;9.354;-4.094;-0.011;-0.002;-0.002;
20190905_195436;-0.031;9.199;-4.096;0.012;0.003;-0.001;
20190905_195436;0.261;9.560;-4.219;-0.014;0.003;-0.000;
20190905_195436;0.357;9.278;-4.135;-0.000;0.001;-0.000;
20190905_195436;0.309;9.591;-4.223;0.016;0.000;-0.003;
20190905_195436;0.108;9.340;-4.231;-0.000;0.003;-0.001;
20190905_195436;0.287;9.134;-4.154;0.001;0.002;0.001;
20190905_195436;0.369;9.309;-4.039;-0.016;0.002;-0.002;
20190905_195437;0.132;9.385;-4.137;0.006;-0.001;-0.003;
20190905_195437;0.395;9.438;-4.192;-0.004;0.001;-0.000;
20190905_195437;0.247;9.512;-4.130;-0.000;0.001;-0.000;
20190905_195437;0.417;9.534;-4.259;-0.001;0.001;-0.001;
20190905_195437;0.302;9.416;-4.360;-0.004;0.001;-0.006;
20190905_195437;0.225;9.582;-4.238;0.006;0.000;-0.003;
20190905_195437;0.409;9.364;-4.269;-0.001;0.001;-0.003;
20190905_195437;0.287;9.675;-4.281;0.002;0.001;-0.000;
20190905_195437;0.587;9.476;-4.345;0.001;0.000;-0.000;
20190905_195438;0.278;9.371;-4.290;-0.008;0.002;-0.005;
20190905_195438;0.211;9.730;-4.305;-0.001;0.001;-0.006;
20190905_195438;0.508;9.163;-4.326;-0.000;0.000;0.001;
20190905_195438;0.326;9.615;-4.341;-0.002;0.002;-0.002;
20190905_195438;0.460;9.562;-4.539;0.016;0.001;0.003;
20190905_195438;0.053;9.529;-4.427;-0.000;0.005;-0.000;
20190905_195438;0.294;9.697;-4.492;-0.006;0.003;0.002;
20190905_195438;0.235;9.570;-4.448;0.002;0.003;-0.002;
20190905_195438;0.318;9.467;-4.276;-0.014;0.004;0.002;
20190905_195439;0.084;9.163;-4.386;-0.006;0.004;0.002;
20190905_195439;0.345;9.395;-4.573;0.003;0.003;0.006;
20190905_195439;0.235;9.426;-4.458;0.002;0.004;0.001;
20190905_195439;0.067;9.225;-4.331;0.010;0.004;0.006;
20190905_195439;0.304;9.433;-4.348;-0.014;0.002;0.002;
20190905_195439;0.103;9.222;-4.410;-0.001;0.002;-0.002;
20190905_195439;0.450;9.388;-4.571;0.004;0.002;0.006;
20190905_195439;0.251;9.258;-4.362;-0.000;0.003;0.001;
20190905_195439;0.299;9.361;-4.367;0.005;0.002;0.001;
20190905_195439;0.086;9.426;-4.501;-0.013;0.002;-0.001;
20190905_195440;0.139;9.112;-4.302;-0.009;0.001;-0.003;
20190905_195440;0.122;9.388;-4.398;-0.004;0.001;-0.003;
20190905_195440;0.244;9.313;-4.377;-0.013;-0.002;-0.006;
20190905_195440;0.445;9.100;-4.463;-0.022;0.001;-0.003;
20190905_195440;0.472;9.342;-4.448;0.003;0.001;-0.001;
20190905_195440;0.254;9.246;-4.307;-0.012;-0.001;-0.005;
20190905_195440;-0.014;9.029;-4.293;-0.008;0.001;-0.004;
20190905_195440;0.433;9.254;-4.470;-0.005;-0.001;-0.001;
20190905_195440;0.445;8.964;-4.350;-0.005;-0.002;-0.002;
20190905_195440;0.266;8.988;-4.298;-0.011;0.001;-0.004;
20190905_195441;0.196;8.983;-4.405;-0.016;0.000;-0.001;
20190905_195441;0.139;8.926;-4.420;-0.002;-0.001;0.001;
20190905_195441;0.215;8.811;-4.180;-0.000;0.000;0.002;
20190905_195441;0.314;8.904;-4.252;-0.005;0.002;0.002;
20190905_195441;0.213;8.997;-4.209;-0.007;0.002;0.003;
20190905_195441;0.242;8.957;-4.199;-0.002;-0.001;-0.000;
20190905_195441;0.273;8.887;-4.350;-0.000;0.000;0.003;
20190905_195441;0.259;8.861;-4.365;-0.004;0.000;-0.000;
20190905_195441;0.486;8.990;-4.247;0.005;-0.001;0.003;
20190905_195442;0.043;8.775;-4.164;-0.015;0.002;0.001;
20190905_195442;0.225;8.727;-4.207;-0.005;0.002;0.003;
20190905_195442;0.359;8.741;-4.140;-0.004;0.003;0.005;
20190905_195442;0.175;8.770;-4.077;-0.009;0.002;0.002;
20190905_195442;0.306;8.954;-4.252;0.001;0.001;0.002;
20190905_195442;0.259;8.701;-4.161;-0.011;0.000;0.002;
20190905_195442;0.237;8.772;-4.247;-0.008;0.001;-0.000;
20190905_195442;0.306;8.722;-4.266;-0.012;0.002;0.003;
20190905_195442;0.457;8.607;-4.190;-0.010;0.001;0.003;
20190905_195442;0.139;8.715;-4.149;-0.006;-0.001;-0.000;
20190905_195443;0.199;8.701;-4.216;-0.009;0.002;0.003;
20190905_195443;0.175;8.669;-4.219;-0.007;-0.001;-0.001;
20190905_195443;0.405;8.837;-4.240;-0.013;-0.001;-0.000;
20190905_195443;0.239;8.449;-4.104;-0.017;-0.001;-0.001;
20190905_195443;0.204;8.497;-4.132;-0.008;0.002;0.002;
20190905_195443;0.342;8.686;-4.149;-0.006;0.002;0.001;
20190905_195443;0.338;8.574;-4.125;-0.012;0.002;-0.000;
20190905_195443;0.409;8.811;-4.140;-0.010;0.001;0.003;
20190905_195443;0.120;8.832;-4.149;-0.016;0.001;-0.002;
20190905_195444;0.345;8.519;-4.132;-0.010;0.000;-0.000;
20190905_195444;0.271;8.665;-4.142;-0.014;0.001;-0.000;
20190905_195444;0.208;8.528;-4.168;-0.005;0.003;0.002;
20190905_195444;0.378;8.617;-4.147;-0.014;0.002;0.001;
20190905_195444;0.239;8.643;-4.204;-0.010;0.002;0.001;
20190905_195444;0.321;8.693;-4.166;-0.016;0.001;-0.001;
20190905_195444;0.091;8.562;-4.207;-0.013;0.003;-0.002;
20190905_195444;0.362;8.655;-4.159;-0.010;0.002;0.001;
20190905_195444;0.239;8.576;-4.195;-0.006;0.001;-0.000;
20190905_195445;0.204;8.554;-4.209;-0.011;0.002;0.001;
20190905_195445;0.321;8.748;-4.183;-0.001;0.001;0.003;
20190905_195445;0.067;8.650;-4.243;-0.021;0.003;-0.001;
20190905_195445;0.263;8.598;-4.123;-0.004;0.001;0.001;
20190905_195445;0.280;8.624;-4.156;-0.011;0.004;0.002;
20190905_195445;0.266;8.650;-4.142;-0.018;0.002;-0.000;
20190905_195445;0.160;8.588;-4.147;-0.013;0.004;0.002;
20190905_195445;0.235;8.629;-4.128;-0.011;0.002;0.001;
20190905_195445;0.153;8.569;-4.058;-0.014;0.004;0.002;
20190905_195445;0.050;8.526;-4.077;-0.020;0.004;-0.000;
20190905_195446;0.330;8.590;-4.099;-0.015;0.002;0.002;
20190905_195446;0.170;8.588;-4.058;-0.006;0.003;-0.000;
20190905_195446;0.223;8.456;-4.075;-0.013;0.001;-0.001;
20190905_195446;0.223;8.468;-4.049;-0.007;0.000;-0.000;
20190905_195446;0.148;8.317;-3.979;-0.008;0.003;-0.000;
20190905_195446;0.251;8.468;-4.080;-0.008;0.002;0.002;
20190905_195446;0.263;8.499;-4.049;-0.003;0.001;0.001;
20190905_195446;0.163;8.543;-4.046;0.000;0.001;0.001;
20190905_195446;0.141;8.341;-3.915;0.000;-0.000;0.001;
20190905_195446;0.249;8.430;-4.003;0.005;-0.000;-0.001;
20190905_195447;0.168;8.487;-3.962;0.002;0.001;-0.002;
20190905_195447;0.326;8.430;-4.065;-0.001;-0.000;-0.001;
20190905_195447;0.271;8.322;-3.912;-0.017;0.001;-0.003;
20190905_195447;0.177;8.392;-4.005;-0.006;-0.000;-0.004;
20190905_195447;0.230;8.387;-4.046;0.000;-0.000;-0.003;
20190905_195447;0.266;8.396;-4.032;-0.002;0.001;-0.002;
20190905_195447;0.170;8.504;-3.986;0.000;-0.000;-0.003;
20190905_195447;0.204;8.382;-3.898;0.002;-0.000;-0.004;
20190905_195447;0.254;8.373;-3.938;-0.002;-0.000;-0.004;
20190905_195448;0.227;8.329;-3.936;-0.004;0.001;-0.003;
20190905_195448;0.259;8.334;-4.029;-0.006;-0.000;-0.001;
20190905_195448;0.211;8.547;-3.958;0.004;-0.000;-0.001;
20190905_195448;0.285;8.418;-3.953;0.002;-0.001;-0.002;
20190905_195448;0.230;8.308;-3.900;0.002;-0.000;-0.001;
20190905_195448;0.273;8.495;-3.941;0.005;-0.001;-0.002;
20190905_195448;0.249;8.274;-3.869;0.000;-0.001;-0.002;
20190905_195448;0.194;8.413;-3.967;-0.001;-0.000;-0.002;
20190905_195448;0.220;8.322;-3.982;0.003;0.001;0.001;
20190905_195449;0.199;8.456;-3.994;-0.004;-0.000;-0.001;
20190905_195449;0.201;8.483;-3.994;-0.003;-0.000;0.001;
20190905_195449;0.290;8.480;-4.005;0.002;-0.001;-0.002;
20190905_195449;0.115;8.305;-3.867;-0.003;-0.000;-0.002;
20190905_195449;0.180;8.394;-3.910;0.009;-0.000;0.002;
20190905_195449;0.261;8.464;-3.943;-0.003;0.001;-0.001;
20190905_195449;0.247;8.514;-3.998;-0.013;-0.000;-0.001;
20190905_195449;0.153;8.401;-3.989;-0.012;0.001;-0.001;
20190905_195449;0.299;8.504;-3.924;-0.003;-0.001;-0.002;
20190905_195449;0.285;8.370;-3.950;0.004;-0.001;-0.001;
20190905_195450;0.199;8.468;-3.888;-0.006;-0.000;-0.002;
20190905_195450;0.177;8.521;-3.958;-0.009;0.001;-0.001;
20190905_195450;0.318;8.511;-3.965;-0.011;-0.000;-0.002;
20190905_195450;0.227;8.459;-3.910;0.005;-0.002;-0.001;
20190905_195450;0.275;8.473;-3.936;0.007;-0.001;0.001;
20190905_195450;0.194;8.583;-3.919;-0.003;-0.001;0.001;
20190905_195450;0.326;8.598;-3.912;0.005;-0.002;-0.001;
20190905_195450;0.196;8.473;-3.895;0.001;0.000;-0.000;
20190905_195450;0.239;8.485;-3.926;-0.004;-0.001;-0.000;
20190905_195451;0.292;8.492;-3.898;0.002;-0.001;-0.000;
20190905_195451;0.223;8.384;-3.833;-0.005;-0.001;0.002;
20190905_195451;0.251;8.442;-3.910;0.006;0.000;0.002;
20190905_195451;0.237;8.531;-3.891;0.004;0.000;0.003;
20190905_195451;0.182;8.550;-3.955;-0.005;0.000;0.002;
20190905_195451;0.189;8.502;-3.895;0.003;0.000;0.002;
20190905_195451;0.225;8.514;-3.855;0.006;0.000;0.002;
20190905_195451;0.249;8.509;-3.953;-0.002;0.001;0.004;
20190905_195451;0.254;8.466;-3.778;0.008;0.000;0.003;
20190905_195451;0.208;8.574;-3.936;0.013;-0.001;0.003;
20190905_195452;0.304;8.502;-3.847;0.001;0.000;-0.000;
20190905_195452;0.261;8.619;-3.922;0.008;-0.002;-0.000;
20190905_195452;0.338;8.641;-3.953;-0.001;-0.002;-0.003;
20190905_195452;0.239;8.571;-3.900;0.012;-0.001;-0.001;
20190905_195452;0.201;8.622;-3.912;0.002;0.001;-0.000;
20190905_195452;0.335;8.602;-3.886;0.006;-0.001;0.001;
20190905_195452;0.218;8.624;-3.831;0.009;0.000;-0.001;
20190905_195452;0.287;8.650;-3.943;-0.001;-0.001;-0.000;
20190905_195452;0.247;8.612;-3.859;0.008;0.000;-0.000;
20190905_195452;0.309;8.698;-3.881;0.007;0.000;0.002;
20190905_195453;0.299;8.645;-3.807;0.008;-0.001;0.001;
20190905_195453;0.163;8.679;-3.915;0.000;0.001;-0.000;
20190905_195453;0.278;8.657;-3.934;0.003;0.000;-0.000;
20190905_195453;0.189;8.638;-3.812;0.001;0.001;-0.000;
20190905_195453;0.239;8.712;-3.893;0.011;-0.001;0.001;
20190905_195453;0.230;8.741;-3.850;0.003;0.001;0.001;
20190905_195453;0.172;8.756;-3.898;0.001;0.000;-0.000;
20190905_195453;0.196;8.712;-3.994;0.011;0.000;-0.000;
20190905_195453;0.192;8.610;-3.883;-0.001;0.000;0.001;
20190905_195454;0.223;8.732;-3.946;0.002;0.000;-0.000;
20190905_195454;0.230;8.693;-3.953;0.004;0.002;0.002;
20190905_195454;0.160;8.760;-3.857;0.009;0.000;0.002;
20190905_195454;0.184;8.768;-3.903;0.004;0.000;0.002;
20190905_195454;0.254;8.689;-3.934;-0.004;0.000;0.002;
20190905_195454;0.201;8.724;-3.953;0.013;0.001;0.002;
20190905_195454;0.160;8.811;-3.917;0.004;0.001;0.002;
20190905_195454;0.242;8.758;-3.895;-0.002;0.001;0.002;
20190905_195454;0.297;8.746;-3.958;-0.003;0.002;0.003;
20190905_195454;0.232;8.724;-3.958;0.004;0.001;0.005;
20190905_195455;0.204;8.689;-3.891;0.003;0.000;0.004;
20190905_195455;0.271;8.741;-3.790;0.009;0.000;0.004;
20190905_195455;0.206;8.643;-3.874;0.001;0.000;0.002;
20190905_195455;0.213;8.727;-3.840;0.004;0.001;0.004;
20190905_195455;0.144;8.684;-3.742;0.007;0.001;0.002;
20190905_195455;0.230;8.672;-3.821;0.003;0.001;0.004;
20190905_195455;0.237;8.669;-3.867;0.001;0.001;0.005;
20190905_195455;0.189;8.701;-3.828;-0.002;0.002;0.003;
20190905_195455;0.182;8.672;-3.814;-0.002;0.002;0.003;
20190905_195456;0.261;8.648;-3.819;-0.008;0.001;0.002;
20190905_195456;0.306;8.605;-3.802;-0.002;0.001;0.004;
20190905_195456;0.215;8.605;-3.871;0.003;-0.000;0.003;
20190905_195456;0.275;8.583;-3.797;0.001;0.001;0.001;
20190905_195456;0.285;8.691;-3.862;-0.002;0.001;0.001;
20190905_195456;0.302;8.703;-3.809;-0.004;-0.000;0.000;
20190905_195456;0.244;8.722;-3.804;-0.002;-0.001;0.001;
20190905_195456;0.218;8.689;-3.766;-0.002;-0.000;-0.002;
20190905_195456;0.244;8.739;-3.814;0.001;-0.002;-0.003;
20190905_195456;0.180;8.679;-3.847;0.001;-0.002;-0.004;
20190905_195457;0.199;8.696;-3.790;-0.003;-0.002;-0.002;
20190905_195457;0.254;8.698;-3.804;0.001;-0.000;-0.002;
20190905_195457;0.180;8.593;-3.821;-0.002;-0.001;-0.002;
20190905_195457;0.172;8.660;-3.778;0.004;-0.001;-0.003;
20190905_195457;0.172;8.624;-3.809;0.002;-0.001;-0.002;
20190905_195457;0.273;8.669;-3.814;0.002;-0.001;-0.001;
20190905_195457;0.256;8.679;-3.833;0.001;-0.001;-0.002;
20190905_195457;0.208;8.669;-3.790;-0.003;-0.000;-0.001;
20190905_195457;0.268;8.681;-3.847;-0.002;-0.001;-0.002;
20190905_195458;0.371;8.638;-3.826;-0.004;-0.000;-0.001;
20190905_195458;0.280;8.638;-3.831;0.001;-0.000;0.000;
20190905_195458;0.227;8.677;-3.812;-0.005;-0.000;-0.001;
20190905_195458;0.184;8.612;-3.797;0.002;-0.000;-0.001;
20190905_195458;0.302;8.734;-3.838;-0.002;-0.001;-0.002;
20190905_195458;0.318;8.631;-3.814;0.001;-0.001;-0.001;
20190905_195458;0.275;8.686;-3.792;-0.002;0.001;-0.001;
20190905_195458;0.316;8.703;-3.814;0.003;-0.000;-0.002;
20190905_195458;0.283;8.679;-3.778;0.003;0.001;-0.002;
20190905_195458;0.330;8.746;-3.819;0.002;-0.002;-0.004;
20190905_195459;0.263;8.660;-3.816;0.001;-0.002;-0.002;
20190905_195459;0.172;8.768;-3.883;0.002;-0.001;-0.003;
20190905_195459;0.311;8.780;-3.828;-0.000;-0.001;-0.004;
20190905_195459;0.299;8.787;-3.838;-0.000;-0.000;-0.004;
20190905_195459;0.345;8.746;-3.819;0.001;-0.001;-0.003;
20190905_195459;0.201;8.765;-3.850;0.003;-0.000;-0.002;
20190905_195459;0.275;8.741;-3.836;-0.003;0.001;0.000;
20190905_195459;0.244;8.746;-3.879;0.003;0.002;0.004;
20190905_195459;0.239;8.763;-3.871;-0.004;0.003;0.006;
20190905_195500;0.280;8.789;-3.874;0.004;0.007;0.013;
20190905_195500;0.271;8.739;-3.886;0.002;0.007;0.018;
20190905_195500;0.239;8.751;-3.883;0.001;0.010;0.022;
20190905_195500;0.232;8.813;-3.859;0.003;0.013;0.025;
20190905_195500;0.278;8.768;-3.867;0.004;0.013;0.029;
20190905_195500;0.251;8.772;-3.845;0.004;0.013;0.032;
20190905_195500;0.266;8.815;-3.881;-0.000;0.017;0.034;
20190905_195500;0.230;8.780;-3.891;-0.002;0.018;0.038;
20190905_195500;0.287;8.835;-3.898;0.002;0.019;0.040;
20190905_195500;0.359;8.871;-3.984;0.002;0.019;0.041;
20190905_195501;0.306;8.854;-3.926;-0.003;0.021;0.042;
20190905_195501;0.227;8.770;-3.883;0.001;0.021;0.043;
20190905_195501;0.292;8.787;-3.900;0.001;0.020;0.042;
20190905_195501;0.266;8.825;-3.898;0.005;0.020;0.042;
20190905_195501;0.290;8.806;-3.876;-0.002;0.021;0.041;
20190905_195501;0.285;8.916;-3.929;0.004;0.021;0.041;
20190905_195501;0.299;8.916;-3.938;0.002;0.021;0.040;
20190905_195501;0.271;8.825;-3.893;0.001;0.020;0.039;
20190905_195501;0.347;8.873;-3.924;0.006;0.020;0.038;
20190905_195502;0.335;8.859;-3.888;0.002;0.022;0.039;
20190905_195502;0.333;8.856;-3.948;0.005;0.021;0.036;
20190905_195502;0.397;8.902;-3.955;-0.000;0.021;0.036;
20190905_195502;0.340;8.882;-3.960;0.002;0.020;0.033;
20190905_195502;0.366;8.928;-3.938;0.005;0.022;0.033;
20190905_195502;0.395;8.906;-3.960;0.002;0.022;0.032;
20190905_195502;0.385;8.990;-4.022;0.007;0.022;0.032;
20190905_195502;0.366;8.997;-3.974;0.002;0.023;0.031;
20190905_195502;0.405;8.964;-3.994;0.007;0.023;0.031;
20190905_195502;0.366;9.019;-3.967;0.001;0.023;0.030;
20190905_195503;0.316;8.887;-3.950;0.001;0.025;0.030;
20190905_195503;0.388;8.954;-3.989;0.007;0.025;0.033;
20190905_195503;0.362;8.978;-3.948;0.004;0.025;0.033;
20190905_195503;0.366;8.899;-3.946;-0.002;0.027;0.032;
20190905_195503;0.357;8.935;-3.979;0.004;0.028;0.033;
20190905_195503;0.280;8.866;-3.876;-0.004;0.028;0.033;
20190905_195503;0.311;8.799;-3.950;0.004;0.028;0.035;
20190905_195503;0.407;8.825;-3.886;0.005;0.029;0.038;
20190905_195503;0.467;8.792;-3.946;0.003;0.032;0.036;
20190905_195504;0.376;8.856;-3.893;0.002;0.032;0.036;
20190905_195504;0.359;8.815;-3.881;0.003;0.035;0.039;
20190905_195504;0.321;8.882;-3.891;0.008;0.035;0.039;
20190905_195504;0.323;8.806;-3.929;0.007;0.035;0.039;
20190905_195504;0.330;8.813;-3.924;0.007;0.036;0.039;
20190905_195504;0.409;8.873;-3.874;0.003;0.037;0.039;
20190905_195504;0.414;8.918;-3.938;0.006;0.036;0.040;
20190905_195504;0.263;8.842;-3.958;0.004;0.037;0.036;
20190905_195504;0.479;9.026;-3.982;0.010;0.037;0.038;
20190905_195504;0.433;8.964;-4.013;0.003;0.038;0.035;
20190905_195505;0.424;8.892;-3.960;0.010;0.038;0.035;
20190905_195505;0.378;8.966;-3.991;0.010;0.037;0.033;
20190905_195505;0.426;9.014;-4.003;0.011;0.038;0.034;
20190905_195505;0.424;9.005;-4.032;0.006;0.039;0.032;
20190905_195505;0.407;9.064;-4.037;0.012;0.040;0.032;
20190905_195505;0.464;9.005;-3.994;0.005;0.041;0.030;
20190905_195505;0.340;9.081;-4.082;0.009;0.039;0.029;
20190905_195505;0.402;8.997;-4.037;0.006;0.041;0.029;
20190905_195505;0.488;9.069;-4.077;0.009;0.042;0.030;
20190905_195506;0.285;9.105;-4.053;0.004;0.042;0.029;
20190905_195506;0.385;8.981;-3.996;0.006;0.044;0.031;
20190905_195506;0.235;9.108;-4.087;0.011;0.047;0.033;
20190905_195506;0.328;9.036;-4.034;0.008;0.045;0.034;
20190905_195506;0.421;9.143;-4.068;0.012;0.047;0.036;
20190905_195506;0.393;9.249;-4.159;0.016;0.049;0.036;
20190905_195506;0.328;9.184;-4.128;0.009;0.048;0.035;
20190905_195506;0.309;9.239;-4.149;0.014;0.048;0.034;
20190905_195506;0.366;9.170;-4.149;0.010;0.049;0.034;
20190905_195507;0.457;9.199;-4.171;0.017;0.050;0.035;
20190905_195507;0.383;9.278;-4.173;0.014;0.049;0.032;
20190905_195507;0.333;9.354;-4.252;0.013;0.049;0.031;
20190905_195507;0.340;9.402;-4.180;0.016;0.049;0.030;
20190905_195507;0.400;9.354;-4.235;0.018;0.049;0.029;
20190905_195507;0.354;9.390;-4.207;0.013;0.049;0.030;
20190905_195507;0.338;9.280;-4.216;0.013;0.050;0.030;
20190905_195507;0.285;9.354;-4.286;0.017;0.051;0.031;
20190905_195507;0.283;9.440;-4.274;0.018;0.051;0.030;
20190905_195507;0.321;9.419;-4.310;0.020;0.051;0.031;
20190905_195508;0.364;9.457;-4.322;0.016;0.051;0.028;
20190905_195508;0.390;9.519;-4.398;0.014;0.051;0.027;
20190905_195508;0.311;9.579;-4.286;0.017;0.052;0.026;
20190905_195508;0.268;9.474;-4.374;0.018;0.052;0.023;
20190905_195508;0.311;9.445;-4.355;0.022;0.050;0.022;
20190905_195508;0.342;9.649;-4.408;0.019;0.048;0.016;
20190905_195508;0.340;9.541;-4.348;0.017;0.045;0.015;
20190905_195508;0.247;9.574;-4.324;0.020;0.048;0.011;
20190905_195508;0.266;9.536;-4.357;0.017;0.048;0.010;
20190905_195509;0.199;9.481;-4.319;0.021;0.045;0.008;
20190905_195509;0.340;9.529;-4.386;0.022;0.045;0.008;
20190905_195509;0.354;9.577;-4.432;0.021;0.044;0.004;
20190905_195509;0.280;9.622;-4.386;0.021;0.047;0.004;
20190905_195509;0.290;9.553;-4.391;0.021;0.045;0.007;
20190905_195509;0.199;9.649;-4.429;0.021;0.045;0.004;
20190905_195509;0.354;9.661;-4.503;0.019;0.044;0.002;
20190905_195509;0.247;9.708;-4.496;0.025;0.044;0.002;
20190905_195509;0.278;9.742;-4.496;0.023;0.045;0.001;
20190905_195509;0.194;9.689;-4.477;0.026;0.045;0.006;
20190905_195510;0.268;9.620;-4.441;0.021;0.044;0.002;
20190905_195510;0.273;9.749;-4.535;0.020;0.044;0.001;
20190905_195510;0.328;9.610;-4.463;0.022;0.044;0.001;
20190905_195510;0.292;9.716;-4.527;0.026;0.043;-0.001;
20190905_195510;0.225;9.728;-4.472;0.025;0.043;-0.004;
20190905_195510;0.177;9.711;-4.465;0.020;0.043;-0.008;
20190905_195510;0.259;9.742;-4.511;0.025;0.040;-0.008;
20190905_195510;0.239;9.764;-4.542;0.022;0.041;-0.011;
20190905_195510;0.148;9.780;-4.494;0.022;0.039;-0.015;
20190905_195511;0.220;9.917;-4.554;0.028;0.037;-0.016;
20190905_195511;0.350;9.804;-4.520;0.025;0.035;-0.019;
20190905_195511;0.345;9.814;-4.549;0.029;0.035;-0.021;
20190905_195511;0.273;9.934;-4.585;0.025;0.036;-0.021;
20190905_195511;0.266;9.859;-4.547;0.029;0.035;-0.023;
20190905_195511;0.311;9.902;-4.657;0.026;0.035;-0.024;
20190905_195511;0.323;10.036;-4.717;0.025;0.034;-0.024;
20190905_195511;0.184;9.946;-4.623;0.022;0.034;-0.026;
20190905_195511;0.237;9.967;-4.662;0.026;0.034;-0.026;
20190905_195511;0.266;9.855;-4.623;0.023;0.034;-0.025;
20190905_195512;0.158;9.874;-4.609;0.024;0.032;-0.027;
20190905_195512;0.259;9.910;-4.693;0.030;0.033;-0.025;
20190905_195512;0.098;9.850;-4.573;0.022;0.032;-0.029;
20190905_195512;0.153;9.962;-4.717;0.029;0.033;-0.029;
20190905_195512;0.127;9.919;-4.638;0.019;0.029;-0.031;
20190905_195512;0.182;9.950;-4.669;0.020;0.031;-0.031;
20190905_195512;0.192;9.946;-4.676;0.028;0.031;-0.027;
20190905_195512;0.101;9.953;-4.599;0.023;0.031;-0.031;
20190905_195512;0.318;10.044;-4.664;0.025;0.031;-0.029;
20190905_195513;0.182;9.972;-4.786;0.021;0.031;-0.029;
20190905_195513;0.180;9.948;-4.645;0.023;0.031;-0.026;
20190905_195513;0.187;10.029;-4.750;0.020;0.032;-0.026;
20190905_195513;0.196;9.859;-4.690;0.017;0.033;-0.023;
20190905_195513;0.113;10.032;-4.726;0.020;0.033;-0.024;
20190905_195513;0.232;10.056;-4.767;0.017;0.029;-0.024;
20190905_195513;0.194;10.044;-4.707;0.021;0.028;-0.027;
20190905_195513;0.194;9.979;-4.611;0.022;0.029;-0.029;
20190905_195513;0.153;9.967;-4.683;0.017;0.028;-0.031;
20190905_195514;0.110;9.907;-4.580;0.014;0.026;-0.034;
20190905_195514;0.160;9.843;-4.597;0.022;0.024;-0.036;
20190905_195514;0.110;9.737;-4.597;0.014;0.023;-0.039;
20190905_195514;0.194;9.747;-4.547;0.014;0.022;-0.041;
20190905_195514;0.192;9.730;-4.571;0.024;0.021;-0.043;
20190905_195514;0.204;9.723;-4.527;0.012;0.020;-0.042;
20190905_195514;0.139;9.776;-4.523;0.018;0.020;-0.042;
20190905_195514;0.053;9.778;-4.618;0.017;0.021;-0.040;
20190905_195514;0.117;9.804;-4.544;0.018;0.021;-0.038;
20190905_195514;0.239;9.840;-4.549;0.020;0.021;-0.037;
20190905_195515;0.029;9.802;-4.539;0.011;0.021;-0.036;
20190905_195515;0.182;9.785;-4.535;0.014;0.020;-0.035;
20190905_195515;0.093;9.704;-4.561;0.014;0.020;-0.034;
20190905_195515;0.165;9.673;-4.477;0.014;0.019;-0.036;
20190905_195515;0.156;9.629;-4.475;0.014;0.018;-0.035;
20190905_195515;0.057;9.495;-4.384;0.009;0.018;-0.037;
20190905_195515;0.170;9.615;-4.391;0.016;0.017;-0.035;
20190905_195515;0.093;9.440;-4.365;0.011;0.016;-0.038;
20190905_195515;0.156;9.483;-4.360;0.014;0.016;-0.038;
20190905_195516;0.163;9.359;-4.381;0.005;0.015;-0.041;
20190905_195516;0.089;9.321;-4.264;0.010;0.013;-0.041;
20190905_195516;0.072;9.428;-4.326;0.011;0.012;-0.042;
20190905_195516;0.124;9.266;-4.247;0.010;0.012;-0.040;
20190905_195516;0.153;9.426;-4.341;0.017;0.011;-0.042;
20190905_195516;0.263;9.313;-4.216;0.003;0.011;-0.043;
20190905_195516;0.101;9.316;-4.271;0.012;0.011;-0.043;
20190905_195516;0.175;9.359;-4.228;0.010;0.009;-0.045;
20190905_195516;0.189;9.206;-4.259;0.011;0.010;-0.043;
20190905_195516;0.311;9.249;-4.255;0.009;0.008;-0.043;
20190905_195517;0.163;9.280;-4.185;0.010;0.009;-0.045;
20190905_195517;0.072;9.155;-4.226;0.005;0.008;-0.042;
20190905_195517;0.184;9.297;-4.288;0.016;0.009;-0.040;
20190905_195517;0.117;9.378;-4.283;0.005;0.010;-0.040;
20190905_195517;0.110;9.304;-4.197;0.005;0.009;-0.041;
20190905_195517;0.182;9.397;-4.357;0.014;0.009;-0.037;
20190905_195517;0.177;9.448;-4.314;0.007;0.009;-0.037;
20190905_195517;0.158;9.462;-4.317;0.008;0.009;-0.037;
20190905_195517;0.062;9.385;-4.276;0.004;0.008;-0.037;
20190905_195517;0.144;9.357;-4.307;0.010;0.007;-0.035;
20190905_195518;0.136;9.232;-4.149;-0.002;0.007;-0.035;
20190905_195518;0.192;9.182;-4.195;0.008;0.008;-0.033;
20190905_195518;0.105;8.995;-4.111;0.001;0.008;-0.034;
20190905_195518;0.134;9.084;-4.154;0.006;0.008;-0.033;
20190905_195518;0.187;8.997;-4.077;0.003;0.007;-0.036;
20190905_195518;0.163;9.005;-4.041;0.002;0.006;-0.036;
20190905_195518;0.115;9.012;-4.063;0.006;0.005;-0.033;
20190905_195518;0.280;8.842;-4.073;0.002;0.006;-0.034;
20190905_195518;0.105;8.863;-4.020;0.004;0.006;-0.034;
20190905_195519;0.225;8.818;-3.989;0.004;0.005;-0.035;
20190905_195519;0.201;8.930;-4.013;0.001;0.006;-0.033;
20190905_195519;0.180;8.803;-4.005;0.001;0.005;-0.033;
20190905_195519;0.158;8.997;-4.101;0.010;0.005;-0.032;
20190905_195519;0.113;9.033;-4.049;-0.002;0.006;-0.036;
20190905_195519;0.208;8.921;-4.053;-0.000;0.004;-0.034;
20190905_195519;0.177;9.050;-4.096;0.008;0.005;-0.034;
20190905_195519;0.144;8.851;-3.977;-0.000;0.005;-0.033;
20190905_195519;0.163;8.923;-4.073;0.007;0.005;-0.032;
20190905_195519;0.232;8.918;-4.034;-0.002;0.005;-0.033;
20190905_195520;0.158;8.744;-4.015;0.004;0.005;-0.031;
20190905_195520;0.175;8.892;-4.051;0.004;0.005;-0.029;
20190905_195520;0.208;8.863;-3.970;0.002;0.005;-0.030;
20190905_195520;0.115;8.772;-3.912;-0.003;0.005;-0.030;
20190905_195520;0.098;8.823;-4.032;0.005;0.004;-0.029;
20190905_195520;0.124;8.818;-3.960;0.001;0.005;-0.030;
20190905_195520;0.208;8.823;-4.032;0.002;0.004;-0.029;
20190905_195520;0.144;8.787;-4.056;-0.002;0.003;-0.029;
20190905_195520;0.223;8.837;-3.950;0.005;0.004;-0.029;
20190905_195521;0.266;8.849;-4.005;-0.000;0.003;-0.030;
20190905_195521;0.127;8.897;-3.962;0.004;0.003;-0.029;
20190905_195521;0.168;8.863;-3.996;-0.002;0.002;-0.029;
20190905_195521;0.242;8.866;-4.053;-0.000;0.003;-0.029;
20190905_195521;0.244;8.837;-3.960;-0.000;0.002;-0.029;
20190905_195521;0.220;8.811;-4.013;0.005;0.004;-0.027;
20190905_195521;0.124;8.813;-3.946;0.002;0.002;-0.026;
20190905_195521;0.261;8.744;-3.970;0.002;0.002;-0.027;
20190905_195521;0.218;8.739;-3.948;0.002;0.002;-0.026;
20190905_195522;0.242;8.763;-3.965;-0.004;0.003;-0.026;
20190905_195522;0.266;8.701;-3.946;0.002;0.004;-0.023;
20190905_195522;0.192;8.684;-3.847;-0.005;0.004;-0.022;
20190905_195522;0.275;8.696;-3.931;-0.002;0.004;-0.021;
20190905_195522;0.333;8.614;-3.948;0.001;0.002;-0.021;
20190905_195522;0.330;8.629;-3.895;0.006;0.003;-0.021;
20190905_195522;0.330;8.792;-3.919;-0.002;0.004;-0.022;
20190905_195522;0.321;8.669;-3.910;0.001;0.003;-0.024;
20190905_195522;0.268;8.595;-3.972;0.005;0.002;-0.022;
20190905_195522;0.261;8.643;-3.924;0.001;0.003;-0.025;
20190905_195523;0.280;8.789;-4.029;0.006;0.001;-0.025;
20190905_195523;0.251;8.847;-3.962;-0.005;0.003;-0.029;
20190905_195523;0.201;8.827;-3.994;0.002;0.001;-0.027;
20190905_195523;0.239;8.830;-4.010;0.001;0.002;-0.027;
20190905_195523;0.256;8.921;-4.017;-0.004;0.003;-0.025;
20190905_195523;0.129;8.684;-3.895;-0.002;0.003;-0.025;
20190905_195523;0.230;8.710;-4.008;0.005;0.004;-0.024;
20190905_195523;0.204;8.823;-3.943;-0.003;0.002;-0.023;
20190905_195523;0.194;8.760;-3.982;-0.004;0.003;-0.020;
20190905_195524;0.232;8.760;-3.984;-0.000;0.004;-0.020;
20190905_195524;0.297;8.744;-4.025;0.006;0.005;-0.018;
20190905_195524;0.194;8.712;-3.955;-0.000;0.004;-0.017;
20190905_195524;0.287;8.775;-3.960;0.004;0.006;-0.015;
20190905_195524;0.220;8.772;-3.912;-0.005;0.006;-0.013;
20190905_195524;0.223;8.727;-3.924;0.007;0.005;-0.011;
20190905_195524;0.283;8.780;-3.953;0.007;0.006;-0.011;
20190905_195524;0.163;8.772;-3.936;-0.002;0.005;-0.014;
20190905_195524;0.249;8.722;-3.915;0.002;0.006;-0.013;
20190905_195524;0.323;8.863;-4.008;0.002;0.005;-0.013;
20190905_195525;0.180;8.880;-3.960;0.005;0.006;-0.013;
20190905_195525;0.146;8.844;-4.010;0.004;0.005;-0.015;
20190905_195525;0.218;8.837;-4.013;0.002;0.006;-0.011;
20190905_195525;0.201;8.940;-3.977;0.002;0.005;-0.011;
20190905_195525;0.354;8.847;-3.936;0.001;0.005;-0.013;
20190905_195525;0.098;8.873;-3.955;0.007;0.006;-0.011;
20190905_195525;0.247;8.863;-3.979;0.002;0.004;-0.011;
20190905_195525;0.275;8.832;-3.967;0.007;0.004;-0.011;
20190905_195525;0.309;8.827;-4.044;0.005;0.005;-0.013;
20190905_195526;0.194;8.811;-3.970;0.001;0.004;-0.015;
20190905_195526;0.211;8.959;-3.977;0.008;0.003;-0.015;
20190905_195526;0.321;9.031;-4.053;0.004;0.004;-0.014;
20190905_195526;0.263;8.988;-4.005;0.007;0.002;-0.016;
20190905_195526;0.309;9.024;-4.049;0.004;0.004;-0.016;
20190905_195526;0.177;8.947;-4.075;0.006;0.002;-0.017;
20190905_195526;0.242;8.952;-3.984;0.005;0.003;-0.017;
20190905_195526;0.192;9.019;-4.068;0.006;0.003;-0.016;
20190905_195526;0.232;9.062;-4.013;0.004;0.003;-0.016;
20190905_195527;0.268;8.940;-4.025;0.002;0.003;-0.016;
20190905_195527;0.328;8.981;-4.049;0.003;0.003;-0.014;
20190905_195527;0.134;9.055;-4.029;0.008;0.004;-0.014;
20190905_195527;0.239;8.947;-3.970;-0.004;0.003;-0.014;
20190905_195527;0.220;9.098;-4.130;0.011;0.004;-0.013;
20190905_195527;0.237;8.954;-4.032;-0.004;0.005;-0.011;
20190905_195527;0.206;8.971;-4.104;0.010;0.004;-0.010;
20190905_195527;0.369;9.060;-4.123;0.002;0.005;-0.009;
20190905_195527;0.256;9.045;-4.123;0.004;0.004;-0.009;
20190905_195527;0.225;9.100;-4.142;0.002;0.006;-0.009;
20190905_195528;0.211;9.112;-4.101;0.001;0.005;-0.008;
20190905_195528;0.163;8.993;-4.096;0.005;0.005;-0.008;
20190905_195528;0.271;9.100;-4.137;0.002;0.004;-0.009;
20190905_195528;0.278;9.074;-4.032;0.003;0.004;-0.009;
20190905_195528;0.192;9.055;-4.106;-0.000;0.004;-0.008;
20190905_195528;0.283;9.084;-4.128;0.005;0.004;-0.009;
20190905_195528;0.235;9.014;-4.070;0.002;0.004;-0.010;
20190905_195528;0.235;9.060;-4.080;0.004;0.004;-0.008;
20190905_195528;0.194;9.002;-4.077;0.003;0.003;-0.010;
20190905_195529;0.211;9.009;-4.063;0.002;0.004;-0.008;
20190905_195529;0.201;8.990;-4.113;0.004;0.003;-0.009;
20190905_195529;0.225;9.139;-4.087;0.002;0.004;-0.010;
20190905_195529;0.244;9.072;-4.087;0.008;0.003;-0.009;
20190905_195529;0.235;9.100;-4.077;0.004;0.002;-0.010;
20190905_195529;0.204;9.096;-4.118;0.005;0.002;-0.010;
20190905_195529;0.297;9.079;-4.137;0.004;0.003;-0.011;
20190905_195529;0.283;9.074;-4.082;0.005;0.002;-0.011;
20190905_195529;0.220;9.072;-4.082;0.004;0.003;-0.013;
20190905_195529;0.251;8.993;-4.001;0.004;0.001;-0.011;
20190905_195530;0.208;9.005;-4.080;0.002;0.002;-0.011;
20190905_195530;0.247;8.954;-4.029;0.002;-0.000;-0.013;
20190905_195530;0.168;9.007;-4.044;0.005;0.001;-0.013;
20190905_195530;0.189;9.074;-4.053;0.001;0.001;-0.011;
20190905_195530;0.153;9.067;-4.147;0.008;0.001;-0.011;
20190905_195530;0.299;9.048;-4.039;-0.005;-0.002;-0.015;
20190905_195530;0.254;8.993;-4.113;0.010;0.001;-0.013;
20190905_195530;0.287;9.043;-4.068;0.007;-0.001;-0.013;
20190905_195530;0.285;9.052;-4.063;0.003;-0.001;-0.014;
20190905_195531;0.266;9.064;-4.111;0.009;-0.000;-0.011;
20190905_195531;0.280;9.072;-4.092;0.003;0.001;-0.010;
20190905_195531;0.247;9.012;-4.116;0.007;0.001;-0.010;
20190905_195531;0.194;9.043;-4.159;-0.000;-0.001;0.001;
20190905_195531;0.208;9.050;-4.092;-0.006;-0.003;0.000;
20190905_195531;0.156;9.031;-4.041;0.001;-0.002;0.000;
20190905_195531;0.192;9.067;-4.104;-0.001;-0.002;0.001;
20190905_195531;0.378;9.021;-4.120;-0.005;-0.002;0.001;
20190905_195531;0.359;9.050;-4.051;0.002;-0.002;0.002;
20190905_195531;0.201;9.057;-4.094;-0.005;-0.002;0.001;
20190905_195532;0.206;9.048;-4.104;0.003;-0.001;0.002;
20190905_195532;0.299;9.052;-4.092;-0.009;-0.003;0.000;
20190905_195532;0.292;9.048;-4.130;0.004;-0.001;0.002;
20190905_195532;0.251;9.041;-4.046;-0.005;-0.003;0.002;
20190905_195532;0.165;9.108;-4.156;0.002;-0.002;0.002;
20190905_195532;0.268;9.029;-4.065;-0.005;-0.003;0.001;
20190905_195532;0.369;8.983;-4.120;-0.000;-0.003;0.001;
20190905_195532;0.299;9.055;-4.068;-0.003;-0.002;0.003;
20190905_195532;0.206;8.971;-4.073;-0.004;-0.002;0.003;
20190905_195533;0.383;9.100;-4.073;-0.004;-0.002;0.005;
20190905_195533;0.278;9.024;-4.051;0.001;-0.001;0.004;
20190905_195533;0.299;8.990;-4.034;-0.001;-0.000;0.005;
20190905_195533;0.218;9.026;-4.063;-0.000;0.001;0.006;
20190905_195533;0.271;8.985;-4.063;-0.001;-0.000;0.009;
20190905_195533;0.225;9.045;-4.051;-0.000;0.002;0.010;
20190905_195533;0.251;9.091;-4.104;-0.001;0.002;0.009;
20190905_195533;0.199;9.009;-3.989;-0.005;0.001;0.007;
20190905_195533;0.213;8.997;-4.049;-0.002;0.001;0.009;
20190905_195533;0.235;8.962;-3.989;-0.003;-0.001;0.005;
20190905_195534;0.230;8.918;-4.022;-0.000;-0.000;0.006;
20190905_195534;0.239;8.964;-3.972;0.001;-0.000;0.006;
20190905_195534;0.235;8.856;-3.982;-0.006;-0.001;0.004;
20190905_195534;0.208;8.995;-4.046;-0.001;-0.000;0.003;
20190905_195534;0.283;8.966;-3.989;-0.006;-0.002;0.002;
20190905_195534;0.187;8.945;-3.979;-0.000;-0.001;0.001;
20190905_195534;0.278;9.000;-4.061;-0.002;-0.001;0.000;
20190905_195534;0.278;8.950;-4.073;-0.003;-0.003;-0.001;
20190905_195534;0.089;8.954;-3.953;0.002;-0.003;0.001;
20190905_195535;0.136;8.904;-4.094;0.003;-0.003;0.002;
20190905_195535;0.249;8.844;-3.977;-0.006;-0.002;0.002;
20190905_195535;0.237;8.885;-4.070;0.002;-0.002;0.002;
20190905_195535;0.249;8.990;-4.027;-0.005;-0.001;0.002;
20190905_195535;0.225;8.902;-3.994;0.006;-0.001;0.001;
20190905_195535;0.239;8.993;-4.087;0.002;0.000;0.001;
20190905_195535;0.287;8.973;-4.061;-0.002;0.000;0.004;
20190905_195535;0.211;8.962;-4.017;-0.003;0.001;0.000;
20190905_195535;0.170;8.930;-4.008;-0.001;0.001;0.004;
20190905_195535;0.215;8.899;-4.061;0.001;0.000;0.006;
20190905_195536;0.278;9.009;-4.056;-0.004;0.000;0.007;
20190905_195536;0.302;8.947;-4.070;-0.002;0.001;0.007;
20190905_195536;0.081;8.993;-4.029;0.005;0.002;0.009;
20190905_195536;0.342;9.012;-4.099;0.004;0.001;0.008;
20190905_195536;0.340;8.863;-4.063;-0.005;0.001;0.007;
20190905_195536;0.232;9.017;-4.092;0.001;0.000;0.006;
20190905_195536;0.218;8.909;-3.991;-0.008;-0.002;0.005;
20190905_195536;0.163;8.985;-4.013;0.002;0.000;0.005;
20190905_195536;0.223;9.033;-4.092;0.003;-0.001;0.006;
20190905_195537;0.230;9.055;-4.070;0.003;0.000;0.007;
20190905_195537;0.230;9.098;-4.049;0.002;0.000;0.005;
20190905_195537;0.194;9.055;-4.041;-0.003;-0.001;0.004;
20190905_195537;0.287;8.971;-4.025;0.005;-0.001;0.004;
20190905_195537;0.268;8.973;-4.020;0.001;0.000;0.004;
20190905_195537;0.223;9.055;-4.046;0.004;0.001;0.005;
20190905_195537;0.158;8.938;-4.008;-0.007;-0.001;0.002;
20190905_195537;0.204;9.057;-4.053;0.002;0.001;0.006;
20190905_195537;0.110;9.048;-4.034;-0.003;0.001;0.007;
20190905_195537;0.165;8.918;-3.972;0.001;0.001;0.008;
20190905_195538;0.259;9.105;-4.149;0.001;0.001;0.009;
20190905_195538;0.266;8.928;-4.037;-0.007;0.000;0.009;
20190905_195538;0.220;9.093;-4.010;0.011;-0.001;0.008;
20190905_195538;0.280;9.076;-4.073;-0.003;-0.001;0.006;
20190905_195538;0.268;9.009;-4.039;0.004;-0.001;0.007;
20190905_195538;0.235;9.093;-4.104;0.004;-0.002;0.005;
20190905_195538;0.220;8.873;-3.998;-0.003;-0.002;0.000;
20190905_195538;0.170;9.122;-4.010;0.011;-0.002;0.004;
20190905_195538;0.206;9.038;-4.118;-0.001;-0.004;-0.001;
20190905_195538;0.163;9.120;-4.080;-0.003;-0.003;-0.002;
20190905_195539;0.278;9.182;-4.089;0.005;-0.003;0.000;
20190905_195539;0.168;9.064;-4.101;-0.003;-0.004;-0.002;
20190905_195539;0.242;9.232;-4.147;0.001;-0.005;-0.002;
20190905_195539;0.256;9.091;-4.041;-0.003;-0.004;-0.003;
20190905_195539;0.294;8.923;-3.977;0.006;-0.005;-0.001;
20190905_195539;0.306;9.086;-4.116;0.005;-0.004;-0.002;
20190905_195539;0.120;9.041;-4.053;-0.005;-0.004;-0.003;
20190905_195539;0.182;9.060;-3.996;-0.001;-0.005;-0.005;
20190905_195539;0.292;9.024;-4.096;0.003;-0.005;-0.003;
20190905_195540;0.273;9.244;-4.101;0.003;-0.004;-0.003;
20190905_195540;0.249;9.201;-4.111;0.002;-0.004;-0.003;
20190905_195540;0.259;9.151;-4.051;-0.004;-0.004;-0.004;
20190905_195540;0.347;9.084;-4.077;0.004;-0.005;-0.004;
20190905_195540;0.385;9.052;-4.044;-0.003;-0.005;-0.003;
20190905_195540;0.302;9.206;-4.128;0.008;-0.003;-0.001;
20190905_195540;0.321;9.146;-4.077;-0.004;-0.004;-0.002;
20190905_195540;0.201;9.163;-4.085;0.005;-0.004;-0.001;
20190905_195540;0.235;8.981;-4.094;-0.006;-0.004;-0.002;
20190905_195540;0.124;9.136;-4.171;0.010;-0.002;0.002;
20190905_195541;0.362;9.129;-4.046;-0.007;-0.002;0.002;
20190905_195541;0.160;9.146;-4.123;0.011;-0.002;0.001;
20190905_195541;0.239;9.311;-4.077;0.001;-0.003;0.002;
20190905_195541;0.146;9.117;-4.070;-0.001;-0.002;0.004;
20190905_195541;0.192;9.143;-4.034;0.005;-0.001;0.007;
20190905_195541;0.239;9.096;-4.140;0.003;-0.001;0.007;
20190905_195541;0.237;9.167;-4.108;0.001;0.000;0.007;
20190905_195541;0.218;9.184;-4.080;-0.001;-0.002;0.007;
20190905_195541;0.108;9.019;-4.070;0.003;-0.001;0.008;
20190905_195542;0.206;9.079;-4.175;0.005;0.000;0.009;
20190905_195542;0.196;9.292;-4.118;-0.003;-0.001;0.008;
20190905_195542;0.225;9.127;-4.082;-0.002;-0.002;0.008;
20190905_195542;0.383;9.225;-4.152;-0.001;-0.002;0.006;
20190905_195542;0.259;9.019;-4.077;-0.002;-0.003;0.005;
20190905_195542;0.211;9.127;-4.075;0.004;-0.001;0.005;
20190905_195542;0.168;9.029;-4.037;-0.001;-0.004;0.001;
20190905_195542;0.259;9.014;-4.128;0.006;-0.004;-0.001;
20190905_195542;0.141;9.131;-4.080;-0.001;-0.002;0.001;
20190905_195542;0.129;9.117;-4.039;0.004;-0.002;0.002;
20190905_195543;0.232;9.124;-4.108;-0.005;-0.003;0.004;
20190905_195543;0.280;9.124;-4.156;0.004;-0.001;0.007;
20190905_195543;0.271;9.050;-4.003;-0.005;-0.002;0.006;
20190905_195543;0.180;9.112;-4.058;0.003;-0.001;0.008;
20190905_195543;0.294;9.007;-4.092;-0.002;-0.003;0.008;
20190905_195543;0.247;9.067;-4.027;-0.008;-0.003;0.007;
20190905_195543;0.247;9.055;-4.022;-0.003;-0.002;0.007;
20190905_195543;0.215;8.904;-3.991;0.007;-0.003;0.010;
20190905_195543;0.215;9.084;-4.104;0.006;-0.002;0.010;
20190905_195543;0.249;9.064;-4.029;-0.002;0.000;0.010;
20190905_195544;0.041;8.930;-4.020;-0.004;-0.001;0.008;
20190905_195544;0.292;9.043;-4.046;0.004;-0.003;0.009;
20190905_195544;0.194;9.050;-4.037;-0.004;-0.002;0.008;
20190905_195544;0.218;8.988;-3.996;0.001;-0.003;0.010;
20190905_195544;0.168;9.038;-4.003;0.001;-0.003;0.009;
20190905_195544;0.158;8.914;-3.991;-0.001;-0.002;0.009;
20190905_195544;0.283;8.981;-3.979;-0.003;-0.002;0.009;
20190905_195544;0.251;9.045;-4.063;0.003;-0.002;0.007;
20190905_195544;0.187;8.918;-3.926;-0.006;-0.003;0.006;
20190905_195544;0.306;9.072;-4.092;0.001;-0.003;0.007;
20190905_195545;0.196;8.995;-3.965;0.001;-0.004;0.004;
20190905_195545;0.220;8.997;-4.027;0.005;-0.003;0.007;
20190905_195545;0.290;9.000;-4.034;0.003;-0.003;0.006;
20190905_195545;0.309;8.985;-4.056;0.003;-0.002;0.005;
20190905_195545;0.213;8.966;-4.003;0.005;-0.003;0.005;
20190905_195545;0.177;8.878;-4.005;-0.003;-0.005;0.002;
20190905_195545;0.206;8.969;-4.061;0.002;-0.006;0.000;
20190905_195545;0.333;8.997;-4.005;-0.004;-0.005;0.000;
20190905_195545;0.239;8.990;-4.046;0.002;-0.006;-0.001;
20190905_195546;0.333;8.985;-4.087;0.004;-0.005;0.000;
20190905_195546;0.333;8.940;-4.058;-0.001;-0.004;0.000;
20190905_195546;0.211;8.978;-3.960;-0.003;-0.006;-0.001;
20190905_195546;0.290;8.918;-4.125;0.002;-0.006;0.000;
20190905_195546;0.290;8.875;-3.977;-0.005;-0.005;0.001;
20190905_195546;0.302;9.103;-4.037;0.009;-0.004;0.001;
20190905_195546;0.184;9.110;-3.994;-0.005;-0.004;-0.001;
20190905_195546;0.156;9.002;-4.003;-0.006;-0.005;-0.001;
20190905_195546;0.266;9.009;-4.113;0.003;-0.003;0.000;
20190905_195546;0.326;9.069;-4.096;0.004;-0.003;0.004;
20190905_195547;0.366;9.062;-3.996;-0.004;-0.001;0.005;
20190905_195547;0.271;9.160;-4.132;0.001;-0.001;0.002;
20190905_195547;0.263;9.115;-4.118;-0.002;-0.003;0.005;
20190905_195547;0.323;9.129;-4.068;-0.003;-0.001;0.007;
20190905_195547;0.249;9.196;-4.049;0.007;0.000;0.010;
20190905_195547;0.275;9.019;-4.001;-0.006;-0.002;0.010;
20190905_195547;0.321;9.086;-4.056;-0.003;0.000;0.009;
20190905_195547;0.189;9.033;-4.017;-0.002;0.000;0.008;
20190905_195547;0.251;8.995;-4.008;-0.001;0.000;0.008;
20190905_195547;0.299;9.141;-4.104;0.007;0.000;0.010;
20190905_195548;0.204;9.103;-4.063;-0.010;0.000;0.004;
20190905_195548;0.273;8.990;-3.984;0.002;-0.003;0.002;
20190905_195548;0.259;9.005;-4.085;0.003;-0.001;0.005;
20190905_195548;0.268;8.988;-4.027;0.001;-0.004;0.002;
20190905_195548;0.292;8.921;-4.049;0.002;-0.001;0.004;
20190905_195548;0.254;9.098;-4.142;0.002;-0.002;0.002;
20190905_195548;0.354;8.985;-3.974;-0.006;-0.002;-0.002;
20190905_195548;0.239;9.084;-4.082;0.004;-0.001;-0.002;
20190905_195548;0.199;8.921;-3.953;-0.005;-0.004;-0.003;
20190905_195549;0.321;8.813;-4.022;0.004;-0.003;-0.002;
20190905_195549;0.249;9.017;-4.027;0.002;-0.003;0.001;
20190905_195549;0.194;8.882;-3.955;-0.006;-0.002;-0.001;
20190905_195549;0.357;8.950;-3.941;0.003;-0.001;0.002;
20190905_195549;0.208;8.863;-4.061;0.002;0.000;0.006;
20190905_195549;0.139;8.827;-3.929;-0.004;0.001;0.009;
20190905_195549;0.232;8.885;-4.013;0.003;0.002;0.013;
20190905_195549;0.230;8.947;-4.015;-0.003;0.003;0.016;
20190905_195549;0.136;9.002;-3.996;0.003;0.004;0.022;
20190905_195550;0.146;8.964;-4.068;-0.001;0.005;0.022;
20190905_195550;0.225;8.950;-4.034;0.001;0.005;0.023;
20190905_195550;0.323;8.894;-3.994;0.001;0.005;0.022;
20190905_195550;0.201;8.985;-4.001;0.002;0.007;0.022;
20190905_195550;0.266;8.875;-4.008;-0.002;0.003;0.021;
20190905_195550;0.239;8.909;-3.962;-0.005;0.002;0.017;
20190905_195550;0.208;8.772;-3.934;-0.001;0.000;0.013;
20190905_195550;0.180;8.789;-3.979;0.004;0.000;0.011;
20190905_195550;0.328;9.072;-4.032;0.003;-0.002;0.010;
20190905_195550;0.175;8.748;-3.903;-0.007;-0.001;0.008;
20190905_195551;0.232;8.885;-3.970;-0.002;-0.001;0.007;
20190905_195551;0.271;8.863;-4.039;0.002;-0.002;0.007;
20190905_195551;0.215;8.947;-4.065;0.003;-0.002;0.005;
20190905_195551;0.251;8.971;-3.984;-0.003;-0.002;0.006;
20190905_195551;0.117;8.969;-4.049;0.003;-0.002;0.006;
20190905_195551;0.211;8.942;-3.984;0.001;-0.002;0.007;
20190905_195551;0.350;8.995;-4.075;0.001;-0.003;0.008;
20190905_195551;0.098;9.017;-4.027;-0.007;-0.002;0.006;
20190905_195551;0.251;8.990;-4.053;0.001;-0.003;0.008;
20190905_195552;0.278;8.995;-3.950;-0.005;-0.004;0.006;
20190905_195552;0.218;8.971;-4.029;0.002;-0.003;0.006;
20190905_195552;0.256;9.021;-4.022;-0.001;-0.003;0.007;
20190905_195552;0.299;8.873;-4.089;0.002;-0.005;0.005;
20190905_195552;0.206;8.861;-3.998;0.004;-0.002;0.007;
20190905_195552;0.208;8.983;-4.061;-0.002;-0.003;0.005;
20190905_195552;0.199;9.043;-4.046;0.002;-0.004;0.002;
20190905_195552;0.148;9.122;-4.089;-0.003;-0.003;0.005;
20190905_195552;0.247;8.947;-4.032;-0.006;-0.004;0.005;
20190905_195553;0.362;9.024;-4.085;0.003;-0.005;0.005;
20190905_195553;0.271;8.993;-4.001;-0.001;-0.004;0.002;
20190905_195553;0.340;8.923;-3.948;-0.001;-0.004;0.002;
20190905_195553;0.287;8.832;-3.958;-0.002;-0.004;0.005;
20190905_195553;0.206;8.796;-3.960;-0.006;-0.002;0.006;
20190905_195553;0.187;8.732;-3.905;-0.002;-0.004;0.004;
20190905_195553;0.199;8.808;-3.929;-0.002;-0.003;0.002;
20190905_195553;0.280;8.818;-3.912;0.003;-0.004;0.005;
20190905_195553;0.345;8.660;-3.962;-0.001;-0.003;0.001;
20190905_195553;0.232;8.787;-3.917;0.003;-0.002;0.005;
20190905_195554;0.189;8.698;-3.881;-0.003;-0.002;0.004;
20190905_195554;0.283;8.780;-3.958;0.003;-0.002;0.005;
20190905_195554;0.316;8.827;-3.982;0.003;-0.003;0.004;
20190905_195554;0.249;8.746;-3.917;-0.001;-0.002;0.004;
20190905_195554;0.227;8.854;-4.027;0.006;-0.002;0.004;
20190905_195554;0.294;8.701;-3.915;-0.011;-0.002;0.005;
20190905_195554;0.158;8.820;-3.967;0.006;0.000;0.006;
20190905_195554;0.196;8.772;-3.924;-0.003;-0.002;0.005;
20190905_195554;0.227;8.827;-3.974;0.001;0.000;0.007;
20190905_195555;0.306;8.880;-3.960;-0.007;-0.001;0.007;
20190905_195555;0.225;8.844;-3.965;-0.001;-0.001;0.008;
20190905_195555;0.290;8.734;-3.989;-0.001;-0.001;0.009;
20190905_195555;0.259;8.720;-4.001;0.003;0.000;0.009;
20190905_195555;0.239;8.799;-3.979;-0.001;0.000;0.010;
20190905_195555;0.194;8.842;-4.015;-0.002;0.001;0.010;
20190905_195555;0.129;8.801;-3.950;-0.001;0.001;0.011;
20190905_195555;0.189;8.796;-3.950;-0.001;0.001;0.012;
20190905_195555;0.177;8.772;-3.955;-0.003;0.003;0.012;
20190905_195555;0.204;8.794;-3.953;0.001;0.000;0.009;
20190905_195556;0.129;8.818;-3.929;-0.004;0.002;0.011;
20190905_195556;0.127;8.698;-3.910;0.002;0.000;0.009;
20190905_195556;0.148;8.813;-3.979;-0.004;0.000;0.010;
20190905_195556;0.225;8.789;-3.931;-0.004;-0.001;0.010;
20190905_195556;0.168;8.763;-3.926;-0.002;-0.001;0.009;
20190905_195556;0.163;8.751;-3.924;-0.004;0.000;0.009;
20190905_195556;0.230;8.818;-3.967;0.003;-0.001;0.009;
20190905_195556;0.196;8.918;-3.972;-0.002;-0.001;0.008;
20190905_195556;0.170;8.868;-3.977;-0.003;-0.002;0.008;
20190905_195557;0.237;8.811;-4.022;0.001;-0.002;0.009;
20190905_195557;0.172;8.906;-3.977;-0.001;-0.003;0.007;
20190905_195557;0.170;8.957;-4.015;-0.001;-0.002;0.008;
20190905_195557;0.230;8.938;-3.972;-0.003;-0.002;0.006;
20190905_195557;0.239;8.813;-3.989;-0.002;-0.003;0.006;
20190905_195557;0.163;8.794;-3.938;-0.002;-0.002;0.005;
20190905_195557;0.175;8.784;-3.924;-0.003;-0.002;0.007;
20190905_195557;0.151;8.763;-3.922;-0.003;-0.003;0.006;
20190905_195557;0.273;8.827;-3.912;-0.001;-0.003;0.007;
20190905_195557;0.113;8.887;-3.915;-0.003;-0.005;0.006;
20190905_195558;0.204;8.792;-3.886;-0.008;-0.004;0.006;
20190905_195558;0.218;8.746;-3.898;0.002;-0.003;0.009;
20190905_195558;0.326;8.775;-3.996;-0.001;-0.004;0.006;
20190905_195558;0.175;8.696;-3.824;-0.002;-0.003;0.006;
20190905_195558;0.165;8.849;-3.972;0.003;-0.003;0.007;
20190905_195558;0.256;8.729;-3.910;-0.007;-0.004;0.008;
20190905_195558;0.204;8.827;-3.919;0.004;-0.004;0.009;
20190905_195558;0.206;8.760;-3.946;-0.003;-0.003;0.008;
20190905_195558;0.211;8.854;-3.962;-0.001;-0.003;0.008;
20190905_195558;0.206;8.782;-3.965;0.002;-0.004;0.009;
20190905_195559;0.280;8.873;-3.962;0.002;-0.003;0.011;
20190905_195559;0.268;8.851;-3.938;-0.005;-0.002;0.011;
20190905_195559;0.218;8.811;-3.946;-0.003;-0.003;0.009;
20190905_195559;0.225;8.739;-3.852;0.003;-0.003;0.010;
20190905_195559;0.249;8.813;-4.020;-0.003;-0.003;0.007;
20190905_195559;0.304;8.856;-3.941;0.004;-0.004;0.008;
20190905_195559;0.160;8.780;-3.874;-0.002;-0.005;0.005;
20190905_195559;0.230;8.806;-3.989;0.003;-0.003;0.007;
20190905_195559;0.306;8.875;-3.982;-0.004;-0.004;0.005;
20190905_195600;0.285;8.732;-3.938;-0.001;-0.004;0.002;
20190905_195600;0.306;8.796;-3.929;-0.001;-0.004;0.004;
20190905_195600;0.184;8.722;-3.917;-0.004;-0.003;0.004;
20190905_195600;0.321;8.835;-3.962;0.001;-0.003;0.002;
20190905_195600;0.309;8.825;-3.955;-0.003;-0.004;0.001;
20190905_195600;0.165;8.866;-3.965;0.001;-0.004;0.001;
20190905_195600;0.271;8.849;-4.029;-0.005;-0.005;-0.001;
20190905_195600;0.232;8.940;-4.085;0.006;-0.004;0.000;
20190905_195600;0.239;8.866;-3.996;0.002;-0.004;0.001;
20190905_195600;0.237;8.926;-4.001;-0.003;-0.005;-0.002;
20190905_195601;0.285;8.988;-4.092;-0.003;-0.005;-0.001;
20190905_195601;0.235;9.074;-4.085;0.003;-0.005;-0.001;
20190905_195601;0.366;9.050;-4.130;0.002;-0.003;-0.001;
20190905_195601;0.283;8.997;-4.082;-0.002;-0.003;0.001;
20190905_195601;0.187;9.088;-4.087;0.001;-0.004;0.002;
20190905_195601;0.352;9.000;-4.137;-0.002;-0.003;0.001;
20190905_195601;0.330;9.050;-4.056;0.002;-0.002;0.004;
20190905_195601;0.309;9.067;-4.144;-0.004;-0.002;0.004;
20190905_195601;0.163;9.041;-4.005;-0.001;-0.002;0.002;
20190905_195602;0.249;8.981;-4.053;-0.002;-0.002;0.005;
20190905_195602;0.287;8.985;-4.099;0.002;-0.002;0.007;
20190905_195602;0.259;9.007;-4.070;-0.001;-0.001;0.007;
20190905_195602;0.175;9.019;-4.053;0.001;0.000;0.008;
20190905_195602;0.294;8.950;-3.984;0.002;0.000;0.008;
20190905_195602;0.294;8.969;-4.032;0.004;0.001;0.010;
20190905_195602;0.261;8.885;-4.049;0.002;0.000;0.007;
20190905_195602;0.323;9.014;-4.085;0.001;-0.002;0.007;
20190905_195602;0.311;8.892;-3.986;0.002;-0.001;0.007;
20190905_195602;0.213;8.923;-4.056;0.005;0.000;0.008;
20190905_195603;0.362;8.885;-4.005;0.003;-0.001;0.006;
20190905_195603;0.294;8.995;-4.027;0.002;-0.001;0.005;
20190905_195603;0.352;8.952;-4.094;0.003;-0.002;0.004;
20190905_195603;0.362;8.957;-4.029;0.001;-0.002;-0.001;
20190905_195603;0.469;9.033;-4.017;0.004;-0.003;-0.001;
20190905_195603;0.419;8.880;-4.085;-0.005;-0.004;-0.005;
20190905_195603;0.371;8.950;-3.994;-0.003;-0.005;-0.006;
20190905_195603;0.304;9.012;-4.077;0.001;-0.006;-0.008;
20190905_195603;0.364;8.875;-4.008;-0.003;-0.005;-0.010;
20190905_195604;0.510;8.997;-4.075;0.003;-0.004;-0.011;
20190905_195604;0.515;8.847;-4.025;-0.002;-0.006;-0.015;
20190905_195604;0.357;8.988;-3.970;0.003;-0.004;-0.013;
20190905_195604;0.395;8.973;-4.010;-0.001;-0.004;-0.013;
20190905_195604;0.539;8.777;-3.953;-0.003;-0.004;-0.011;
20190905_195604;0.402;8.952;-4.077;0.010;-0.001;-0.008;
20190905_195604;0.385;9.069;-4.049;-0.003;-0.001;-0.009;
20190905_195604;0.306;9.067;-4.063;0.006;0.002;-0.004;
20190905_195604;0.328;9.146;-4.089;-0.005;0.001;-0.002;
20190905_195605;0.373;9.038;-4.094;0.006;0.003;0.002;
20190905_195605;0.280;9.105;-4.034;0.001;0.007;0.005;
20190905_195605;0.294;9.203;-4.171;0.004;0.009;0.008;
20190905_195605;0.237;9.120;-4.106;0.001;0.008;0.008;
20190905_195605;0.318;9.230;-4.214;0.002;0.008;0.011;
20190905_195605;0.160;9.167;-4.087;-0.002;0.009;0.011;
20190905_195605;0.182;9.120;-4.118;0.008;0.011;0.013;
20190905_195605;0.242;9.117;-4.197;-0.001;0.010;0.015;
20190905_195605;0.266;9.177;-4.144;0.001;0.011;0.015;
20190905_195605;0.127;9.213;-4.128;-0.001;0.009;0.014;
20190905_195606;0.144;9.096;-4.152;-0.003;0.009;0.014;
20190905_195606;0.180;9.112;-4.185;0.002;0.009;0.014;
20190905_195606;0.230;9.134;-4.142;-0.003;0.009;0.013;
20190905_195606;0.160;9.189;-4.168;0.002;0.008;0.011;
20190905_195606;0.223;9.096;-4.101;-0.001;0.005;0.011;
20190905_195606;0.101;9.081;-4.087;0.004;0.005;0.010;
20190905_195606;0.235;9.091;-4.089;0.003;0.003;0.010;
20190905_195606;0.201;9.108;-4.128;0.003;0.004;0.007;
20190905_195606;0.204;9.043;-4.099;-0.004;0.004;0.006;
20190905_195606;0.129;9.000;-4.027;0.002;0.004;0.007;
20190905_195607;0.134;9.062;-4.061;-0.003;0.002;0.005;
20190905_195607;0.239;9.026;-4.132;-0.003;0.002;0.007;
20190905_195607;0.098;9.007;-4.058;-0.003;0.002;0.006;
20190905_195607;0.055;9.026;-4.010;0.004;0.002;0.006;
20190905_195607;0.096;8.990;-4.140;0.002;0.001;0.007;
20190905_195607;0.089;9.005;-4.025;0.002;0.002;0.009;
20190905_195607;0.105;8.978;-4.005;0.001;0.003;0.008;
20190905_195607;0.065;8.945;-3.994;-0.001;0.000;0.008;
20190905_195607;0.101;9.029;-4.089;0.005;0.001;0.010;
20190905_195608;0.196;8.988;-4.092;0.002;-0.001;0.009;
20190905_195608;0.132;9.017;-4.092;0.001;0.000;0.008;
20190905_195608;0.158;9.045;-4.029;0.001;-0.001;0.008;
20190905_195608;0.144;9.057;-4.128;-0.003;-0.003;0.006;
20190905_195608;0.160;8.945;-4.037;-0.001;-0.002;0.006;
20190905_195608;0.259;9.000;-4.046;0.006;-0.002;0.008;
20190905_195608;0.172;9.043;-4.065;0.001;-0.003;0.006;
20190905_195608;0.211;9.062;-4.082;0.005;-0.005;0.006;
20190905_195608;0.177;9.009;-4.085;0.002;-0.005;0.005;
20190905_195608;0.151;9.072;-4.077;0.003;-0.005;0.004;
20190905_195609;0.163;8.981;-4.128;-0.003;-0.004;0.005;
20190905_195609;0.297;9.048;-4.005;-0.003;-0.004;0.006;
20190905_195609;0.192;9.057;-4.046;0.002;-0.005;0.004;
20190905_195609;0.108;8.945;-4.027;-0.001;-0.005;0.006;
20190905_195609;0.261;8.990;-4.128;0.005;-0.005;0.006;
20190905_195609;0.227;9.000;-4.053;-0.003;-0.004;0.006;
20190905_195609;0.172;9.005;-4.135;-0.004;-0.004;0.004;
20190905_195609;0.254;8.962;-4.061;-0.002;-0.004;0.006;
20190905_195609;0.237;9.033;-4.080;0.002;-0.006;0.007;
20190905_195610;0.275;9.017;-4.087;-0.002;-0.004;0.008;
20190905_195610;0.340;9.050;-4.137;-0.001;-0.005;0.001;
20190905_195610;0.194;9.017;-4.056;0.000;-0.004;0.003;
20190905_195610;0.227;8.978;-4.082;-0.001;-0.001;0.007;
20190905_195610;0.304;9.064;-4.056;0.000;-0.001;0.011;
20190905_195610;0.285;9.029;-4.056;0.000;0.001;0.012;
20190905_195610;0.306;8.947;-3.967;-0.001;0.001;0.016;
20190905_195610;0.227;9.062;-4.065;0.001;0.003;0.018;
20190905_195610;0.287;9.074;-4.053;-0.001;0.003;0.021;
20190905_195610;0.302;9.002;-4.044;-0.001;0.004;0.023;
20190905_195611;0.345;9.009;-4.075;0.000;0.006;0.026;
20190905_195611;0.330;9.019;-4.104;-0.004;0.005;0.026;
20190905_195611;0.323;8.959;-4.058;-0.001;0.008;0.028;
20190905_195611;0.318;8.988;-4.037;0.000;0.009;0.030;
20190905_195611;0.232;8.966;-4.029;-0.002;0.010;0.031;
20190905_195611;0.292;8.906;-3.972;-0.003;0.010;0.031;
20190905_195611;0.335;8.995;-4.116;0.006;0.012;0.033;
20190905_195611;0.316;8.976;-4.044;-0.004;0.012;0.032;
20190905_195611;0.366;8.966;-4.101;-0.003;0.013;0.031;
20190905_195611;0.338;8.909;-4.022;-0.001;0.012;0.033;
20190905_195612;0.285;8.942;-4.029;0.003;0.013;0.032;
20190905_195612;0.409;8.868;-4.022;-0.003;0.013;0.032;
20190905_195612;0.297;8.897;-4.022;-0.002;0.015;0.030;
20190905_195612;0.359;8.894;-4.053;0.000;0.013;0.031;
20190905_195612;0.366;8.909;-4.065;0.001;0.016;0.030;
20190905_195612;0.352;8.825;-3.986;-0.003;0.016;0.029;
20190905_195612;0.457;8.871;-4.008;-0.001;0.017;0.030;
20190905_195612;0.405;8.811;-3.982;-0.001;0.018;0.029;
20190905_195612;0.330;8.780;-4.029;0.003;0.019;0.030;
20190905_195613;0.338;8.871;-3.965;-0.003;0.020;0.031;
20190905_195613;0.457;8.859;-4.005;-0.003;0.019;0.030;
20190905_195613;0.345;8.875;-3.986;0.000;0.020;0.028;
20190905_195613;0.309;8.851;-3.977;0.001;0.021;0.030;
20190905_195613;0.393;8.820;-3.936;-0.002;0.022;0.031;
20190905_195613;0.335;8.940;-4.017;0.004;0.023;0.031;
20190905_195613;0.362;8.794;-3.962;-0.002;0.023;0.030;
20190905_195613;0.362;8.765;-3.982;0.000;0.024;0.030;
20190905_195613;0.330;8.811;-3.996;0.001;0.024;0.031;
20190905_195613;0.354;8.844;-4.022;-0.001;0.026;0.031;
20190905_195614;0.373;8.861;-3.943;-0.001;0.026;0.033;
20190905_195614;0.419;8.842;-4.025;0.000;0.027;0.033;
20190905_195614;0.350;8.899;-3.929;0.004;0.027;0.035;
20190905_195614;0.268;8.882;-4.005;-0.001;0.029;0.033;
20190905_195614;0.302;8.832;-4.003;0.004;0.031;0.034;
20190905_195614;0.330;8.890;-4.080;0.004;0.029;0.035;
20190905_195614;0.364;8.962;-4.077;-0.003;0.032;0.035;
20190905_195614;0.330;8.976;-4.039;0.002;0.032;0.035;
20190905_195614;0.271;8.959;-4.065;0.001;0.031;0.036;
20190905_195615;0.385;8.981;-4.073;0.003;0.033;0.037;
20190905_195615;0.326;8.993;-4.087;-0.001;0.033;0.036;
20190905_195615;0.309;8.957;-4.061;-0.001;0.034;0.036;
20190905_195615;0.359;8.947;-4.101;0.002;0.034;0.037;
20190905_195615;0.306;9.024;-4.087;0.004;0.035;0.035;
20190905_195615;0.395;8.911;-4.070;0.000;0.035;0.035;
20190905_195615;0.256;8.928;-4.053;0.007;0.035;0.035;
20190905_195615;0.364;8.957;-4.111;0.000;0.035;0.035;
20190905_195615;0.304;8.983;-4.082;0.003;0.036;0.035;
20190905_195616;0.299;8.938;-4.061;0.001;0.036;0.033;
20190905_195616;0.381;8.983;-4.053;0.004;0.036;0.034;
20190905_195616;0.328;8.897;-4.058;0.003;0.037;0.034;
20190905_195616;0.400;9.055;-4.116;0.001;0.039;0.034;
20190905_195616;0.436;8.964;-4.106;0.001;0.037;0.033;
20190905_195616;0.283;8.923;-4.053;0.004;0.039;0.035;
20190905_195616;0.371;8.957;-4.051;0.005;0.039;0.034;
20190905_195616;0.273;9.005;-4.077;0.009;0.039;0.033;
20190905_195616;0.328;8.971;-4.116;-0.001;0.041;0.034;
20190905_195616;0.450;8.928;-4.085;0.007;0.040;0.032;
20190905_195617;0.397;8.940;-4.096;0.006;0.042;0.034;
20190905_195617;0.383;9.031;-4.111;0.011;0.043;0.033;
20190905_195617;0.338;8.985;-4.087;0.002;0.043;0.032;
20190905_195617;0.354;8.964;-4.111;0.007;0.044;0.034;
20190905_195617;0.376;8.940;-4.132;0.009;0.042;0.032;
20190905_195617;0.366;8.966;-4.132;0.007;0.044;0.033;
20190905_195617;0.316;8.935;-4.106;0.012;0.043;0.032;
20190905_195617;0.345;8.952;-4.142;0.009;0.044;0.033;
20190905_195617;0.340;9.043;-4.120;0.010;0.043;0.032;
20190905_195617;0.385;8.990;-4.106;0.011;0.045;0.030;
20190905_195618;0.366;8.964;-4.132;0.014;0.046;0.031;
20190905_195618;0.335;8.997;-4.140;0.012;0.045;0.031;
20190905_195618;0.330;9.062;-4.140;0.011;0.048;0.031;
20190905_195618;0.285;9.060;-4.173;0.012;0.049;0.031;
20190905_195618;0.364;9.052;-4.211;0.015;0.048;0.031;
20190905_195618;0.366;9.131;-4.221;0.015;0.049;0.030;
20190905_195618;0.364;9.088;-4.192;0.014;0.048;0.029;
20190905_195618;0.290;9.103;-4.228;0.015;0.048;0.027;
20190905_195618;0.385;9.208;-4.175;0.014;0.049;0.025;
20190905_195619;0.429;9.175;-4.228;0.007;0.046;0.020;
20190905_195619;0.400;9.222;-4.233;0.015;0.046;0.017;
20190905_195619;0.318;9.170;-4.295;0.010;0.002;-0.017;
20190905_195619;0.450;9.266;-4.307;0.006;0.002;-0.018;
20190905_195619;0.378;9.263;-4.288;0.009;0.001;-0.023;
20190905_195619;0.335;9.213;-4.276;0.006;0.001;-0.026;
20190905_195619;0.364;9.385;-4.324;0.013;0.001;-0.027;
20190905_195619;0.405;9.299;-4.345;0.004;0.000;-0.030;
20190905_195619;0.311;9.397;-4.393;0.012;0.000;-0.031;
20190905_195619;0.321;9.392;-4.374;0.005;0.000;-0.033;
20190905_195620;0.366;9.445;-4.458;0.010;-0.001;-0.034;
20190905_195620;0.287;9.471;-4.439;0.011;0.000;-0.036;
20190905_195620;0.340;9.507;-4.408;0.010;0.000;-0.039;
20190905_195620;0.232;9.433;-4.444;0.015;0.000;-0.036;
20190905_195620;0.266;9.503;-4.475;0.016;0.000;-0.037;
20190905_195620;0.345;9.546;-4.518;0.015;0.000;-0.039;
20190905_195620;0.373;9.529;-4.549;0.013;0.000;-0.038;
20190905_195620;0.294;9.565;-4.554;0.013;-0.001;-0.039;
20190905_195620;0.196;9.531;-4.597;0.010;-0.003;-0.039;
20190905_195621;0.244;9.687;-4.499;-0.004;-0.001;-0.042;
20190905_195621;0.204;9.637;-4.537;0.017;-0.002;-0.041;
20190905_195621;0.302;9.692;-4.673;0.015;-0.002;-0.042;
20190905_195621;0.242;9.634;-4.539;0.007;-0.003;-0.045;
20190905_195621;0.215;9.689;-4.666;0.013;-0.003;-0.044;
20190905_195621;0.283;9.759;-4.664;0.015;-0.004;-0.044;
20190905_195621;0.218;9.730;-4.669;0.008;-0.005;-0.047;
20190905_195621;0.204;9.737;-4.626;0.013;-0.005;-0.046;
20190905_195621;0.237;9.864;-4.685;0.012;-0.006;-0.047;
20190905_195622;0.230;9.716;-4.638;0.007;-0.007;-0.051;
20190905_195622;0.170;9.838;-4.695;0.011;-0.007;-0.053;
20190905_195622;0.256;9.759;-4.650;0.014;-0.009;-0.053;
20190905_195622;0.290;9.804;-4.733;0.015;-0.009;-0.053;
20190905_195622;0.211;9.850;-4.688;0.013;-0.010;-0.054;
20190905_195622;0.151;9.819;-4.690;0.010;-0.010;-0.055;
20190905_195622;0.172;9.893;-4.678;0.013;-0.010;-0.055;
20190905_195622;0.110;9.814;-4.640;0.012;-0.012;-0.056;
20190905_195622;0.168;9.809;-4.645;0.012;-0.013;-0.056;
20190905_195622;0.055;9.922;-4.705;0.017;-0.012;-0.056;
20190905_195623;0.156;9.831;-4.678;0.012;-0.013;-0.058;
20190905_195623;0.072;9.807;-4.697;0.014;-0.015;-0.059;
20190905_195623;0.235;9.922;-4.705;0.011;-0.015;-0.058;
20190905_195623;0.196;9.886;-4.731;0.011;-0.016;-0.061;
20190905_195623;0.192;9.874;-4.693;0.013;-0.016;-0.061;
20190905_195623;0.079;9.778;-4.709;0.011;-0.017;-0.064;
20190905_195623;0.151;9.881;-4.714;0.009;-0.018;-0.064;
20190905_195623;0.113;9.924;-4.726;0.010;-0.019;-0.063;
20190905_195623;0.175;9.855;-4.690;0.007;-0.021;-0.065;
20190905_195624;0.215;9.914;-4.738;0.012;-0.020;-0.067;
20190905_195624;0.031;9.936;-4.688;0.009;-0.021;-0.067;
20190905_195624;0.204;9.924;-4.724;0.011;-0.022;-0.069;
20190905_195624;0.196;9.902;-4.726;0.010;-0.022;-0.067;
20190905_195624;0.309;9.876;-4.724;0.010;-0.023;-0.067;
20190905_195624;0.156;9.893;-4.752;0.012;-0.022;-0.070;
20190905_195624;0.144;9.852;-4.693;0.006;-0.024;-0.073;
20190905_195624;0.124;9.926;-4.685;0.011;-0.024;-0.073;
20190905_195624;0.192;9.819;-4.671;0.006;-0.025;-0.074;
20190905_195625;0.153;9.886;-4.707;0.005;-0.025;-0.073;
20190905_195625;0.196;9.831;-4.659;0.007;-0.026;-0.074;
20190905_195625;0.232;9.833;-4.717;0.005;-0.027;-0.074;
20190905_195625;0.194;9.756;-4.645;0.004;-0.029;-0.076;
20190905_195625;0.144;9.754;-4.597;0.005;-0.029;-0.074;
20190905_195625;0.184;9.740;-4.681;0.001;-0.030;-0.075;
20190905_195625;0.175;9.591;-4.573;-0.003;-0.030;-0.077;
20190905_195625;0.093;9.644;-4.594;0.002;-0.029;-0.076;
20190905_195625;0.165;9.548;-4.535;0.002;-0.030;-0.075;
20190905_195625;0.199;9.493;-4.499;-0.002;-0.030;-0.077;
20190905_195626;0.144;9.646;-4.482;0.002;-0.031;-0.076;
20190905_195626;0.189;9.548;-4.544;-0.004;-0.031;-0.077;
20190905_195626;0.194;9.505;-4.527;-0.001;-0.032;-0.076;
20190905_195626;0.232;9.531;-4.549;0.006;-0.031;-0.074;
20190905_195626;0.187;9.450;-4.456;-0.004;-0.031;-0.075;
20190905_195626;0.177;9.471;-4.465;0.000;-0.032;-0.075;
20190905_195626;0.206;9.378;-4.420;-0.002;-0.033;-0.074;
20190905_195626;0.060;9.357;-4.446;-0.001;-0.032;-0.075;
20190905_195626;0.184;9.376;-4.350;-0.006;-0.033;-0.075;
20190905_195626;0.213;9.258;-4.391;0.001;-0.033;-0.074;
20190905_195627;0.280;9.330;-4.379;-0.004;-0.034;-0.073;
20190905_195627;0.168;9.354;-4.389;-0.002;-0.034;-0.075;
20190905_195627;0.103;9.232;-4.293;-0.002;-0.034;-0.074;
20190905_195627;0.194;9.280;-4.338;-0.002;-0.036;-0.075;
20190905_195627;0.158;9.225;-4.305;-0.004;-0.035;-0.074;
20190905_195627;0.153;9.218;-4.271;-0.001;-0.034;-0.073;
20190905_195627;0.227;9.184;-4.329;-0.008;-0.035;-0.073;
20190905_195627;0.201;9.112;-4.223;-0.006;-0.036;-0.074;
20190905_195627;0.132;9.189;-4.274;-0.002;-0.035;-0.074;
20190905_195628;0.194;9.153;-4.255;-0.006;-0.037;-0.074;
20190905_195628;0.187;9.187;-4.223;-0.005;-0.036;-0.072;
20190905_195628;0.050;9.093;-4.255;-0.006;-0.036;-0.073;
20190905_195628;0.067;9.062;-4.185;-0.005;-0.037;-0.071;
20190905_195628;0.184;9.055;-4.192;-0.007;-0.037;-0.071;
20190905_195628;0.086;9.129;-4.243;-0.004;-0.037;-0.071;
20190905_195628;0.077;9.024;-4.156;-0.012;-0.037;-0.071;
20190905_195628;0.146;9.007;-4.209;0.002;-0.037;-0.067;
20190905_195628;0.160;9.007;-4.159;-0.010;-0.038;-0.071;
20190905_195629;0.089;8.997;-4.192;-0.006;-0.037;-0.067;
20190905_195629;0.115;8.966;-4.128;-0.007;-0.038;-0.070;
20190905_195629;0.184;8.985;-4.166;-0.004;-0.038;-0.066;
20190905_195629;0.139;8.959;-4.142;-0.007;-0.038;-0.066;
20190905_195629;0.084;9.000;-4.149;-0.007;-0.038;-0.065;
20190905_195629;0.136;8.985;-4.137;-0.008;-0.040;-0.066;
20190905_195629;0.160;8.988;-4.154;-0.003;-0.038;-0.063;
20190905_195629;0.079;8.906;-4.130;-0.010;-0.039;-0.064;
20190905_195629;0.122;8.902;-4.123;-0.004;-0.039;-0.065;
20190905_195629;0.215;8.969;-4.085;-0.009;-0.039;-0.063;
20190905_195630;0.201;8.997;-4.111;-0.002;-0.040;-0.063;
20190905_195630;0.148;8.782;-4.077;-0.011;-0.040;-0.064;
20190905_195630;0.172;8.990;-4.099;-0.007;-0.041;-0.063;
20190905_195630;0.194;8.878;-4.077;-0.008;-0.041;-0.065;
20190905_195630;0.326;8.875;-4.061;-0.007;-0.040;-0.063;
20190905_195630;0.170;8.933;-4.068;-0.006;-0.042;-0.063;
20190905_195630;0.213;8.799;-4.094;-0.015;-0.041;-0.063;
20190905_195630;0.144;8.942;-4.104;-0.007;-0.041;-0.062;
20190905_195630;0.163;8.789;-4.010;-0.010;-0.040;-0.063;
20190905_195631;0.247;8.832;-4.049;-0.007;-0.041;-0.061;
20190905_195631;0.189;8.866;-4.070;-0.007;-0.041;-0.062;
20190905_195631;0.141;8.820;-4.046;-0.008;-0.041;-0.061;
20190905_195631;0.187;8.782;-4.039;-0.012;-0.043;-0.061;
20190905_195631;0.242;8.803;-4.080;-0.009;-0.041;-0.059;
20190905_195631;0.096;8.837;-3.972;-0.010;-0.042;-0.060;
20190905_195631;0.201;8.751;-3.996;-0.011;-0.043;-0.060;
20190905_195631;0.254;8.808;-3.996;-0.005;-0.041;-0.059;
20190905_195631;0.275;8.684;-3.996;-0.009;-0.042;-0.061;
20190905_195631;0.218;8.701;-3.936;-0.016;-0.045;-0.060;
20190905_195632;0.148;8.806;-3.994;-0.007;-0.042;-0.060;
20190905_195632;0.256;8.720;-3.958;-0.010;-0.043;-0.059;
20190905_195632;0.323;8.715;-4.003;-0.003;-0.043;-0.060;
20190905_195632;0.232;8.612;-3.941;-0.017;-0.043;-0.061;
20190905_195632;0.247;8.753;-3.967;0.003;-0.003;0.005;
20190905_195632;0.177;8.693;-3.948;-0.007;-0.005;0.005;
20190905_195632;0.223;8.744;-3.994;-0.001;-0.004;0.005;
20190905_195632;0.261;8.715;-3.965;-0.003;-0.005;0.006;
20190905_195632;0.232;8.772;-3.943;-0.002;-0.004;0.006;
20190905_195633;0.235;8.734;-3.977;-0.001;-0.003;0.006;
20190905_195633;0.266;8.732;-4.051;-0.001;-0.003;0.008;
20190905_195633;0.271;8.768;-4.005;-0.001;-0.004;0.010;
20190905_195633;0.266;8.842;-4.049;0.003;-0.003;0.011;
20190905_195633;0.168;8.811;-3.967;0.001;-0.001;0.012;
20190905_195633;0.283;8.780;-4.017;0.002;-0.002;0.013;
20190905_195633;0.237;8.849;-4.020;-0.006;-0.003;0.012;
20190905_195633;0.215;8.792;-4.001;-0.003;-0.002;0.013;
20190905_195633;0.175;8.727;-3.953;-0.001;-0.002;0.014;
20190905_195633;0.271;8.729;-4.039;0.001;-0.002;0.014;
20190905_195634;0.283;8.691;-3.970;-0.005;-0.001;0.015;
20190905_195634;0.196;8.727;-3.979;-0.005;-0.001;0.015;
20190905_195634;0.254;8.722;-4.020;-0.004;-0.001;0.013;
20190905_195634;0.170;8.705;-3.962;-0.005;-0.002;0.015;
20190905_195634;0.182;8.777;-3.938;-0.002;-0.003;0.014;
20190905_195634;0.263;8.674;-4.015;-0.002;-0.003;0.014;
20190905_195634;0.251;8.715;-3.936;0.002;-0.002;0.013;
20190905_195634;0.256;8.811;-4.015;0.000;-0.002;0.013;
20190905_195634;0.232;8.729;-4.008;-0.003;-0.004;0.011;
20190905_195635;0.175;8.756;-3.943;-0.002;-0.004;0.013;
20190905_195635;0.268;8.820;-4.027;0.006;-0.003;0.013;
20190905_195635;0.256;8.801;-3.958;-0.002;-0.004;0.012;
20190905_195635;0.235;8.866;-4.025;0.003;-0.003;0.014;
20190905_195635;0.144;8.875;-3.989;-0.004;-0.005;0.013;
20190905_195635;0.266;8.861;-4.020;0.002;-0.003;0.013;
20190905_195635;0.230;8.902;-4.096;-0.001;-0.004;0.014;
20190905_195635;0.180;8.930;-4.149;-0.001;-0.003;0.016;
20190905_195635;0.247;9.041;-4.147;0.002;-0.004;0.017;
20190905_195636;0.292;9.029;-4.192;-0.003;-0.004;0.016;
20190905_195636;0.113;9.093;-4.132;-0.001;-0.004;0.016;
20190905_195636;0.201;9.079;-4.147;-0.001;-0.004;0.016;
20190905_195636;0.129;9.019;-4.175;-0.003;-0.004;0.016;
20190905_195636;0.292;9.017;-4.154;-0.003;-0.004;0.017;
20190905_195636;0.127;9.084;-4.130;-0.004;-0.003;0.018;
20190905_195636;0.242;9.002;-4.149;0.000;-0.003;0.019;
20190905_195636;0.132;8.981;-4.123;0.000;-0.002;0.022;
20190905_195636;0.168;9.000;-4.092;-0.004;-0.003;0.023;
20190905_195637;0.165;8.954;-4.082;-0.003;-0.001;0.024;
20190905_195637;0.280;8.942;-4.130;0.003;-0.003;0.026;
20190905_195637;0.151;9.005;-4.111;0.002;-0.002;0.027;
20190905_195637;0.163;9.031;-4.094;-0.004;-0.002;0.026;
20190905_195637;0.187;8.981;-4.118;0.000;-0.002;0.028;
20190905_195637;0.230;8.981;-4.049;0.001;-0.003;0.026;
20190905_195637;0.160;9.029;-4.101;-0.004;-0.003;0.023;
20190905_195637;0.266;9.076;-4.099;-0.001;-0.003;0.023;
20190905_195637;0.220;9.153;-4.123;0.006;-0.005;0.022;
20190905_195637;0.201;9.120;-4.130;0.000;-0.005;0.022;
20190905_195638;0.158;9.141;-4.144;0.000;-0.005;0.022;
20190905_195638;0.292;9.017;-4.175;-0.003;-0.006;0.022;
20190905_195638;0.177;9.024;-4.130;0.001;-0.006;0.018;
20190905_195638;0.187;9.029;-4.094;-0.003;-0.007;0.018;
20190905_195638;0.201;9.031;-4.128;0.003;-0.007;0.016;
20190905_195638;0.225;9.086;-4.149;0.000;-0.008;0.019;
20190905_195638;0.196;9.069;-4.070;0.006;-0.007;0.019;
20190905_195638;0.134;9.100;-4.175;-0.005;-0.005;0.020;
20190905_195638;0.146;9.007;-4.089;0.000;-0.007;0.023;
20190905_195639;0.079;9.005;-4.073;-0.001;-0.006;0.023;
20190905_195639;0.227;8.945;-4.096;0.001;-0.005;0.027;
20190905_195639;0.211;8.973;-4.025;-0.001;-0.005;0.027;
20190905_195639;0.134;8.947;-4.065;-0.001;-0.005;0.028;
20190905_195639;0.249;8.885;-3.998;-0.002;-0.005;0.027;
20190905_195639;0.120;8.854;-4.017;0.001;-0.004;0.028;
20190905_195639;0.220;8.878;-3.991;0.000;-0.006;0.027;
20190905_195639;0.227;8.844;-4.022;-0.001;-0.005;0.024;
20190905_195639;0.146;8.825;-4.044;0.003;-0.006;0.023;
20190905_195639;0.249;8.897;-3.991;-0.001;-0.008;0.023;
20190905_195640;0.206;8.904;-4.053;0.003;-0.007;0.022;
20190905_195640;0.299;8.808;-3.967;0.001;-0.008;0.019;
20190905_195640;0.254;8.823;-4.051;0.002;-0.007;0.019;
20190905_195640;0.215;8.851;-4.046;0.002;-0.009;0.017;
20190905_195640;0.215;8.842;-3.977;0.002;-0.008;0.019;
20190905_195640;0.220;9.017;-4.005;-0.002;-0.008;0.020;
20190905_195640;0.223;8.978;-4.003;-0.001;-0.007;0.021;
20190905_195640;0.211;8.813;-4.058;0.005;-0.006;0.023;
20190905_195640;0.208;9.029;-4.094;-0.002;-0.005;0.024;
20190905_195640;0.199;8.894;-4.017;-0.001;-0.004;0.026;
20190905_195641;0.146;9.088;-3.996;0.005;-0.006;0.027;
20190905_195641;0.105;8.964;-4.123;0.000;-0.005;0.028;
20190905_195641;0.180;8.971;-4.147;0.001;-0.005;0.030;
20190905_195641;0.194;9.074;-4.137;0.005;-0.005;0.031;
20190905_195641;0.141;8.976;-4.082;-0.006;-0.004;0.032;
20190905_195641;0.151;9.045;-4.152;0.001;-0.003;0.035;
20190905_195641;0.156;9.084;-4.173;-0.003;-0.004;0.035;
20190905_195641;0.105;9.093;-4.180;0.001;-0.003;0.035;
20190905_195641;0.182;9.000;-4.137;-0.003;-0.004;0.036;
20190905_195642;0.278;9.041;-4.185;0.001;-0.004;0.036;
20190905_195642;0.273;9.055;-4.130;-0.002;-0.005;0.036;
20190905_195642;0.199;8.935;-4.101;-0.004;-0.004;0.034;
20190905_195642;0.192;8.973;-4.037;-0.005;-0.005;0.034;
20190905_195642;0.194;8.997;-4.113;-0.003;-0.005;0.033;
20190905_195642;0.263;8.916;-4.065;-0.007;-0.005;0.031;
20190905_195642;0.249;8.866;-4.022;0.000;-0.007;0.029;
20190905_195642;0.249;8.765;-4.003;-0.005;-0.008;0.026;
20190905_195642;0.309;8.827;-4.010;-0.004;-0.008;0.024;
20190905_195642;0.254;8.780;-3.979;-0.005;-0.009;0.021;
20190905_195643;0.232;8.736;-3.950;-0.004;-0.009;0.020;
20190905_195643;0.297;8.717;-3.950;-0.001;-0.012;0.019;
20190905_195643;0.218;8.569;-3.876;-0.007;-0.010;0.018;
20190905_195643;0.211;8.624;-3.965;0.003;-0.010;0.020;
20190905_195643;0.304;8.655;-3.862;-0.006;-0.009;0.021;
20190905_195643;0.259;8.736;-3.946;0.002;-0.008;0.021;
20190905_195643;0.225;8.710;-3.915;-0.006;-0.009;0.019;
20190905_195643;0.242;8.595;-3.886;-0.003;-0.009;0.022;
20190905_195643;0.254;8.736;-3.941;-0.003;-0.007;0.023;
20190905_195644;0.275;8.617;-3.903;-0.008;-0.008;0.023;
20190905_195644;0.263;8.705;-3.941;0.002;-0.006;0.028;
20190905_195644;0.163;8.703;-3.922;-0.004;-0.005;0.029;
20190905_195644;0.165;8.712;-3.919;0.001;-0.005;0.030;
20190905_195644;0.163;8.777;-3.929;0.000;-0.005;0.032;
20190905_195644;0.132;8.868;-3.972;-0.001;-0.006;0.031;
20190905_195644;0.177;8.847;-3.986;-0.003;-0.004;0.033;
20190905_195644;0.239;8.942;-4.075;0.003;-0.004;0.034;
20190905_195644;0.168;8.957;-4.041;-0.005;-0.006;0.032;
20190905_195644;0.213;8.969;-4.087;0.004;-0.004;0.035;
20190905_195645;0.170;9.048;-4.132;-0.005;-0.005;0.034;
20190905_195645;0.201;9.074;-4.099;0.000;-0.004;0.034;
20190905_195645;0.180;9.029;-4.142;-0.005;-0.005;0.034;
20190905_195645;0.132;9.103;-4.161;0.000;-0.005;0.033;
20190905_195645;0.215;9.050;-4.118;-0.004;-0.007;0.033;
20190905_195645;0.235;9.196;-4.209;0.001;-0.005;0.034;
20190905_195645;0.091;9.134;-4.190;-0.011;-0.007;0.033;
20190905_195645;0.134;9.215;-4.116;-0.002;-0.006;0.035;
20190905_195645;0.196;9.206;-4.204;-0.006;-0.007;0.035;
20190905_195645;0.213;9.318;-4.233;0.004;-0.006;0.034;
20190905_195646;0.254;9.215;-4.274;-0.007;-0.007;0.034;
20190905_195646;0.163;9.278;-4.310;0.002;-0.005;0.034;
20190905_195646;0.117;9.361;-4.245;-0.006;-0.007;0.035;
20190905_195646;0.275;9.333;-4.235;-0.004;-0.008;0.032;
20190905_195646;0.285;9.402;-4.355;-0.003;-0.009;0.032;
20190905_195646;0.199;9.282;-4.343;-0.007;-0.008;0.031;
20190905_195646;0.160;9.366;-4.293;-0.007;-0.007;0.031;
20190905_195646;0.323;9.318;-4.362;-0.005;-0.008;0.031;
20190905_195646;0.196;9.163;-4.211;-0.012;-0.012;0.026;
20190905_195647;0.302;9.196;-4.324;-0.001;-0.010;0.026;
20190905_195647;0.268;9.311;-4.223;-0.008;-0.012;0.024;
20190905_195647;0.256;9.321;-4.310;0.002;-0.010;0.026;
20190905_195647;0.211;9.237;-4.214;-0.011;-0.012;0.026;
20190905_195647;0.275;9.196;-4.293;-0.001;-0.009;0.024;
20190905_195647;0.347;9.189;-4.187;-0.004;-0.009;0.026;
20190905_195647;0.271;9.230;-4.231;-0.002;-0.008;0.027;
20190905_195647;0.316;9.172;-4.199;-0.002;-0.010;0.026;
20190905_195647;0.263;9.120;-4.240;-0.006;-0.010;0.024;
20190905_195648;0.242;9.165;-4.175;0.008;-0.009;0.028;
20190905_195648;0.297;9.187;-4.233;-0.001;-0.008;0.028;
20190905_195648;0.366;9.239;-4.259;0.000;-0.007;0.028;
20190905_195648;0.223;9.244;-4.221;-0.002;-0.008;0.028;
20190905_195648;0.330;9.237;-4.290;-0.004;-0.007;0.028;
20190905_195648;0.242;9.187;-4.185;-0.002;-0.008;0.029;
20190905_195648;0.340;9.189;-4.247;0.006;-0.005;0.031;
20190905_195648;0.369;9.213;-4.235;-0.001;-0.005;0.033;
20190905_195648;0.247;9.242;-4.290;0.000;-0.004;0.034;
20190905_195648;0.275;9.201;-4.199;-0.001;-0.001;0.039;
20190905_195649;0.215;9.203;-4.171;-0.003;-0.001;0.042;
20190905_195649;0.297;9.189;-4.231;0.004;0.001;0.046;
20190905_195649;0.263;9.148;-4.216;-0.003;0.002;0.050;
20190905_195649;0.323;9.141;-4.180;0.001;0.004;0.053;
20190905_195649;0.235;9.069;-4.185;-0.002;0.006;0.055;
20190905_195649;0.290;9.093;-4.190;-0.002;0.008;0.057;
20190905_195649;0.314;9.160;-4.226;0.001;0.010;0.063;
20190905_195649;0.266;9.191;-4.219;-0.003;0.010;0.067;
20190905_195649;0.316;9.148;-4.214;0.000;0.013;0.071;
20190905_195650;0.244;9.261;-4.247;0.008;0.014;0.076;
20190905_195650;0.510;9.120;-4.221;-0.007;0.015;0.075;
20190905_195650;0.364;9.306;-4.283;0.006;0.014;0.073;
20190905_195650;0.388;9.357;-4.243;-0.002;0.014;0.073;
20190905_195650;0.352;9.148;-4.250;-0.001;0.015;0.071;
20190905_195650;0.462;9.388;-4.338;0.008;0.015;0.072;
20190905_195650;0.460;9.256;-4.166;-0.006;0.015;0.069;
20190905_195650;0.347;9.182;-4.257;0.004;0.016;0.068;
20190905_195650;0.433;9.369;-4.266;0.002;0.015;0.068;
20190905_195650;0.383;9.172;-4.159;-0.005;0.016;0.065;
20190905_195651;0.407;9.309;-4.233;0.000;0.015;0.064;
20190905_195651;0.496;9.230;-4.250;-0.002;0.015;0.062;
20190905_195651;0.457;9.127;-4.164;-0.005;0.014;0.060;
20190905_195651;0.433;9.266;-4.262;0.004;0.015;0.057;
20190905_195651;0.450;9.182;-4.108;-0.006;0.014;0.055;
20190905_195651;0.429;9.179;-4.166;0.000;0.015;0.054;
20190905_195651;0.469;9.079;-4.101;-0.001;0.016;0.053;
20190905_195651;0.522;9.151;-4.113;0.005;0.015;0.054;
20190905_195651;0.486;9.033;-4.049;-0.002;0.017;0.054;
20190905_195652;0.491;9.134;-4.187;0.002;0.019;0.054;
20190905_195652;0.491;9.024;-4.041;-0.003;0.019;0.054;
20190905_195652;0.565;9.041;-4.096;0.000;0.020;0.056;
20190905_195652;0.488;9.098;-4.082;0.001;0.023;0.059;
20190905_195652;0.412;8.971;-4.073;0.003;0.024;0.059;
20190905_195652;0.371;9.172;-4.085;0.004;0.027;0.063;
20190905_195652;0.457;9.100;-4.116;0.004;0.027;0.064;
20190905_195652;0.388;9.201;-4.077;0.005;0.029;0.065;
20190905_195652;0.280;9.136;-4.120;0.004;0.032;0.067;
20190905_195652;0.299;9.098;-4.092;0.004;0.032;0.069;
20190905_195653;0.409;9.182;-4.130;0.008;0.033;0.071;
20190905_195653;0.395;9.201;-4.168;0.004;0.034;0.072;
20190905_195653;0.239;9.215;-4.164;0.003;0.037;0.071;
20190905_195653;0.362;9.184;-4.111;0.005;0.037;0.075;
20190905_195653;0.311;9.218;-4.202;0.006;0.037;0.076;
20190905_195653;0.323;9.227;-4.111;0.009;0.037;0.077;
20190905_195653;0.247;9.342;-4.221;0.010;0.040;0.077;
20190905_195653;0.261;9.258;-4.125;0.000;0.039;0.078;
20190905_195653;0.235;9.244;-4.178;0.010;0.040;0.077;
20190905_195654;0.304;9.282;-4.149;0.004;0.039;0.077;
20190905_195654;0.244;9.268;-4.178;0.008;0.040;0.072;
20190905_195654;0.249;9.325;-4.175;0.009;0.039;0.068;
20190905_195654;0.232;9.232;-4.199;0.010;0.036;0.064;
20190905_195654;0.201;9.345;-4.199;0.010;0.032;0.060;
20190905_195654;0.223;9.388;-4.216;0.008;0.031;0.054;
20190905_195654;0.175;9.380;-4.192;0.003;0.029;0.047;
20190905_195654;0.261;9.304;-4.197;0.011;0.026;0.043;
20190905_195654;0.235;9.268;-4.293;0.010;0.025;0.037;
20190905_195654;0.254;9.222;-4.135;0.005;0.021;0.031;
20190905_195655;0.256;9.431;-4.226;0.013;0.021;0.027;
20190905_195655;0.163;9.345;-4.211;0.009;0.019;0.023;
20190905_195655;0.180;9.318;-4.255;0.010;0.015;0.020;
20190905_195655;0.199;9.376;-4.255;0.015;0.015;0.018;
20190905_195655;0.160;9.349;-4.257;0.004;0.015;0.015;
20190905_195655;0.180;9.357;-4.250;0.014;0.015;0.014;
20190905_195655;0.148;9.349;-4.243;0.006;0.015;0.016;
20190905_195655;0.093;9.419;-4.235;0.009;0.014;0.019;
20190905_195655;0.101;9.433;-4.276;0.013;0.015;0.021;
20190905_195656;0.124;9.488;-4.243;0.006;0.015;0.021;
20190905_195656;0.120;9.280;-4.290;0.012;0.016;0.024;
20190905_195656;0.057;9.333;-4.214;0.008;0.017;0.027;
20190905_195656;0.184;9.313;-4.288;0.009;0.016;0.029;
20190905_195656;0.165;9.357;-4.262;0.010;0.017;0.030;
20190905_195656;0.189;9.378;-4.255;0.010;0.016;0.030;
20190905_195656;0.139;9.397;-4.255;0.012;0.017;0.031;
20190905_195656;0.170;9.311;-4.219;0.010;0.016;0.030;
20190905_195656;0.244;9.404;-4.307;0.011;0.015;0.031;
20190905_195656;0.136;9.340;-4.266;0.008;0.015;0.030;
20190905_195657;0.124;9.337;-4.250;0.012;0.015;0.030;
20190905_195657;0.196;9.349;-4.264;0.010;0.016;0.029;
20190905_195657;0.153;9.323;-4.185;0.013;0.015;0.028;
20190905_195657;0.194;9.333;-4.281;0.008;0.014;0.026;
20190905_195657;0.170;9.263;-4.231;0.009;0.012;0.026;
20190905_195657;0.215;9.254;-4.264;0.013;0.014;0.026;
20190905_195657;0.239;9.357;-4.216;0.008;0.013;0.022;
20190905_195657;0.208;9.371;-4.180;0.011;0.012;0.021;
20190905_195657;0.297;9.361;-4.281;0.011;0.010;0.016;
20190905_195658;0.199;9.270;-4.276;0.006;0.009;0.015;
20190905_195658;0.249;9.349;-4.271;0.005;0.008;0.014;
20190905_195658;0.206;9.309;-4.233;0.008;0.007;0.010;
20190905_195658;0.172;9.256;-4.216;0.010;0.007;0.010;
20190905_195658;0.237;9.390;-4.274;0.013;0.007;0.008;
20190905_195658;0.182;9.218;-4.219;0.004;0.006;0.006;
20190905_195658;0.223;9.306;-4.278;0.012;0.006;0.006;
20190905_195658;0.280;9.273;-4.302;0.006;0.003;0.004;
20190905_195658;0.290;9.335;-4.231;0.009;0.002;0.002;
20190905_195658;0.249;9.270;-4.171;0.002;0.003;-0.001;
20190905_195659;0.232;9.299;-4.211;0.006;0.002;-0.001;
20190905_195659;0.180;9.215;-4.226;0.005;0.004;-0.002;
20190905_195659;0.275;9.199;-4.211;0.009;0.002;-0.000;
20190905_195659;0.215;9.292;-4.269;0.008;0.003;-0.002;
20190905_195659;0.235;9.273;-4.195;0.004;0.002;-0.002;
20190905_195659;0.206;9.292;-4.219;0.001;0.002;-0.003;
20190905_195659;0.187;9.148;-4.185;0.006;0.003;-0.000;
20190905_195659;0.215;9.323;-4.226;0.003;0.003;0.001;
20190905_195659;0.227;9.187;-4.223;0.002;0.004;0.001;
20190905_195700;0.218;9.105;-4.152;-0.001;0.003;-0.000;
20190905_195700;0.141;9.230;-4.214;0.006;0.004;0.003;
20190905_195700;0.223;9.177;-4.197;-0.001;0.006;0.003;
20190905_195700;0.208;9.189;-4.159;0.000;0.004;0.004;
20190905_195700;0.160;9.206;-4.156;0.003;0.003;0.004;
20190905_195700;0.160;9.170;-4.190;-0.002;0.004;0.005;
20190905_195700;0.165;9.187;-4.269;0.005;0.004;0.007;
20190905_195700;0.244;9.124;-4.243;-0.002;0.004;0.007;
20190905_195700;0.122;9.249;-4.209;0.002;0.004;0.008;
20190905_195700;0.168;9.263;-4.202;-0.002;0.003;0.007;
20190905_195701;0.196;9.158;-4.231;-0.002;0.003;0.007;
20190905_195701;0.153;9.139;-4.144;0.003;0.003;0.010;
20190905_195701;0.113;9.158;-4.199;-0.001;0.001;0.006;
20190905_195701;0.230;9.141;-4.199;-0.004;0.002;0.007;
20190905_195701;0.134;9.088;-4.187;0.001;0.001;0.006;
20190905_195701;0.223;9.124;-4.152;-0.006;0.000;0.006;
20190905_195701;0.148;9.158;-4.168;-0.001;0.001;0.005;
20190905_195701;0.148;9.084;-4.164;-0.005;0.000;0.004;
20190905_195701;0.201;9.131;-4.197;-0.001;-0.001;0.005;
20190905_195702;0.213;9.038;-4.089;-0.007;-0.002;0.004;
20190905_195702;0.247;9.093;-4.197;-0.002;-0.002;0.003;
20190905_195702;0.220;9.005;-4.140;-0.005;-0.001;0.004;
20190905_195702;0.218;9.048;-4.104;-0.002;-0.001;0.004;
20190905_195702;0.206;9.093;-4.130;-0.004;-0.003;0.004;
20190905_195702;0.247;9.007;-4.168;0.000;-0.003;0.004;
20190905_195702;0.170;9.021;-4.113;-0.002;-0.003;0.003;
20190905_195702;0.244;8.930;-4.061;-0.007;-0.004;0.002;
20190905_195702;0.201;9.005;-4.099;-0.002;-0.004;0.003;
20190905_195702;0.280;9.002;-4.132;-0.004;-0.003;0.005;
20190905_195703;0.213;9.005;-4.140;-0.005;-0.002;0.006;
20190905_195703;0.242;9.002;-4.123;-0.003;-0.002;0.007;
20190905_195703;0.113;8.966;-4.087;0.002;-0.002;0.007;
20190905_195703;0.230;8.976;-4.099;-0.004;-0.002;0.007;
20190905_195703;0.199;9.012;-4.154;-0.010;-0.002;0.007;
20190905_195703;0.177;9.031;-4.164;-0.001;-0.003;0.010;
20190905_195703;0.225;9.014;-4.185;-0.002;-0.002;0.012;
20190905_195703;0.208;9.108;-4.137;-0.001;-0.002;0.013;
20190905_195703;0.194;9.041;-4.116;-0.004;-0.001;0.013;
20190905_195704;0.163;9.052;-4.108;-0.001;-0.002;0.014;
20190905_195704;0.204;9.050;-4.142;-0.007;-0.002;0.014;
20190905_195704;0.206;9.033;-4.096;0.006;-0.002;0.008;
20190905_195704;0.170;8.942;-4.053;-0.001;-0.003;0.006;
20190905_195704;0.201;9.076;-4.168;0.007;-0.002;0.008;
20190905_195704;0.158;8.990;-4.116;-0.001;-0.003;0.007;
20190905_195704;0.208;9.026;-4.087;0.001;-0.003;0.006;
20190905_195704;0.146;9.021;-4.044;-0.003;-0.003;0.007;
20190905_195704;0.199;8.997;-4.111;-0.004;-0.004;0.006;
20190905_195704;0.189;9.012;-4.044;-0.004;-0.003;0.007;
20190905_195705;0.074;9.005;-4.135;0.005;-0.002;0.008;
20190905_195705;0.218;8.995;-4.068;-0.001;-0.002;0.008;
20190905_195705;0.206;9.060;-4.065;-0.002;-0.002;0.011;
20190905_195705;-0.022;9.062;-4.061;0.001;-0.003;0.011;
20190905_195705;0.038;9.024;-4.053;-0.002;-0.002;0.010;
20190905_195705;0.084;8.990;-4.070;-0.003;-0.001;0.013;
20190905_195705;0.189;9.007;-4.049;0.006;-0.001;0.015;
20190905_195705;0.041;9.029;-4.089;0.005;-0.001;0.017;
20190905_195705;0.038;9.043;-4.063;-0.002;-0.001;0.020;
20190905_195706;0.115;8.916;-4.092;0.001;-0.001;0.020;
20190905_195706;0.026;8.957;-3.979;0.002;-0.001;0.020;
20190905_195706;0.103;8.856;-4.015;0.005;-0.003;0.020;
20190905_195706;0.045;8.973;-4.051;0.001;-0.004;0.020;
20190905_195706;0.053;8.873;-4.022;0.005;-0.004;0.020;
20190905_195706;0.074;8.859;-3.955;0.005;-0.004;0.021;
20190905_195706;0.024;8.921;-3.929;-0.001;-0.006;0.017;
20190905_195706;0.062;8.715;-3.895;-0.005;-0.006;0.016;
20190905_195706;0.077;8.823;-4.053;0.008;-0.007;0.017;
20190905_195706;0.225;8.847;-4.020;-0.001;-0.009;0.011;
20190905_195707;0.132;8.966;-4.027;0.011;-0.009;0.013;
20190905_195707;0.208;9.067;-4.020;-0.001;-0.013;0.006;
20190905_195707;0.093;8.969;-4.061;-0.001;-0.013;0.005;
20190905_195707;0.098;8.904;-4.063;-0.002;-0.015;0.000;
20190905_195707;0.218;8.909;-4.116;0.007;-0.013;0.002;
20190905_195707;0.069;9.055;-4.142;-0.002;-0.015;0.001;
20190905_195707;0.223;9.103;-4.053;0.002;-0.014;0.004;
20190905_195707;0.275;9.182;-4.132;0.006;-0.014;0.006;
20190905_195707;0.244;9.064;-4.058;-0.004;-0.012;0.007;
20190905_195708;0.091;9.072;-4.096;0.004;-0.012;0.011;
20190905_195708;0.342;9.026;-4.003;-0.002;-0.010;0.015;
20190905_195708;0.172;8.875;-4.013;-0.001;-0.007;0.018;
20190905_195708;0.256;8.918;-4.056;0.005;-0.008;0.020;
20190905_195708;0.259;8.772;-3.984;-0.003;-0.009;0.021;
20190905_195708;0.256;8.959;-4.041;0.007;-0.006;0.024;
20190905_195708;0.261;8.978;-4.034;-0.001;-0.007;0.023;
20190905_195708;0.345;8.842;-3.929;0.005;-0.006;0.021;
20190905_195708;0.342;8.990;-4.077;0.012;-0.008;0.020;
20190905_195708;0.304;8.904;-4.022;-0.008;-0.008;0.016;
20190905_195709;0.390;8.964;-4.053;0.006;-0.007;0.017;
20190905_195709;0.304;9.007;-4.096;0.006;-0.007;0.016;
20190905_195709;0.275;9.084;-4.089;0.004;-0.007;0.018;
20190905_195709;0.323;9.151;-4.073;0.002;-0.005;0.020;
20190905_195709;0.292;9.076;-4.032;0.000;-0.007;0.017;
20190905_195709;0.247;8.978;-4.032;-0.001;-0.004;0.022;
20190905_195709;0.388;8.971;-4.010;-0.002;-0.004;0.022;
20190905_195709;0.359;8.985;-4.111;0.004;-0.003;0.022;
20190905_195709;0.311;8.935;-4.037;0.001;-0.003;0.023;
20190905_195710;0.306;8.904;-4.044;-0.001;-0.002;0.022;
20190905_195710;0.235;9.005;-4.077;0.006;-0.001;0.024;
20190905_195710;0.254;8.966;-4.044;-0.004;-0.002;0.023;
20190905_195710;0.242;8.983;-4.063;0.006;-0.001;0.024;
20190905_195710;0.160;8.966;-4.058;0.004;-0.002;0.026;
20190905_195710;0.371;9.017;-4.082;0.005;0.000;0.027;
20190905_195710;0.271;8.950;-4.032;-0.001;-0.001;0.026;
20190905_195710;0.376;8.878;-3.979;-0.003;0.000;0.025;
20190905_195710;0.237;8.727;-3.929;-0.001;-0.002;0.023;
20190905_195711;0.206;8.784;-4.029;0.010;-0.002;0.021;
20190905_195711;0.441;8.808;-3.929;-0.002;-0.002;0.018;
20190905_195711;0.309;8.815;-3.936;-0.005;-0.003;0.014;
20190905_195711;0.378;8.938;-3.982;0.000;-0.007;0.011;
20190905_195711;0.302;8.806;-3.960;0.000;-0.007;0.009;
20190905_195711;0.385;8.863;-4.001;0.004;-0.006;0.006;
20190905_195711;0.347;8.801;-4.027;-0.001;-0.007;0.005;
20190905_195711;0.273;8.926;-4.027;-0.001;-0.006;0.006;
20190905_195711;0.335;8.930;-4.056;0.001;-0.007;0.002;
20190905_195711;0.271;8.873;-3.989;0.007;-0.007;0.005;
20190905_195712;0.371;8.962;-4.061;0.007;-0.004;0.007;
20190905_195712;0.278;8.803;-3.953;-0.004;-0.004;0.007;
20190905_195712;0.338;8.906;-3.998;0.000;-0.004;0.007;
20190905_195712;0.292;8.849;-4.051;0.001;-0.003;0.011;
20190905_195712;0.244;8.897;-4.056;0.001;-0.002;0.012;
20190905_195712;0.321;8.930;-4.037;0.002;-0.003;0.012;
20190905_195712;0.316;8.825;-4.034;-0.009;-0.003;0.013;
20190905_195712;0.259;8.880;-4.068;0.001;-0.002;0.015;
20190905_195712;0.338;8.871;-4.020;0.006;-0.001;0.017;
20190905_195712;0.261;8.844;-3.974;-0.006;0.001;0.018;
20190905_195713;0.244;8.847;-4.032;0.006;0.001;0.020;
20190905_195713;0.271;8.842;-4.001;-0.001;0.000;0.020;
20190905_195713;0.254;8.760;-3.996;-0.005;0.000;0.017;
20190905_195713;0.316;8.794;-3.977;0.001;-0.001;0.020;
20190905_195713;0.271;8.815;-3.965;-0.004;-0.001;0.016;
20190905_195713;0.297;8.775;-3.960;0.004;-0.001;0.016;
20190905_195713;0.230;8.825;-3.982;0.009;-0.001;0.015;
20190905_195713;0.201;8.875;-4.080;0.001;0.000;0.014;
20190905_195713;0.172;8.935;-4.013;-0.006;0.000;0.014;
20190905_195713;0.206;8.904;-4.041;0.002;-0.001;0.016;
20190905_195714;0.170;8.950;-4.034;-0.006;-0.002;0.014;
20190905_195714;0.204;8.871;-3.982;-0.001;-0.002;0.017;
20190905_195714;0.101;8.981;-4.075;0.005;0.000;0.020;
20190905_195714;0.204;8.928;-4.096;-0.004;0.001;0.018;
20190905_195714;0.132;8.985;-4.058;0.004;0.001;0.024;
20190905_195714;0.124;8.952;-4.041;-0.001;0.002;0.023;
20190905_195714;0.067;8.950;-4.049;-0.009;0.001;0.023;
20190905_195714;0.069;8.780;-3.938;-0.001;0.001;0.023;
20190905_195714;0.062;8.921;-4.075;0.002;0.001;0.023;
20190905_195715;0.093;8.799;-3.958;-0.005;0.001;0.025;
20190905_195715;0.057;8.753;-3.958;0.001;0.000;0.026;
20190905_195715;0.110;8.823;-4.046;0.006;-0.001;0.025;
20190905_195715;0.153;8.689;-3.915;0.001;-0.002;0.025;
20190905_195715;0.096;8.748;-3.936;0.001;-0.003;0.024;
20190905_195715;0.108;8.693;-3.946;-0.003;-0.003;0.024;
20190905_195715;0.141;8.712;-3.943;0.001;-0.005;0.023;
20190905_195715;0.153;8.854;-3.958;0.000;-0.003;0.024;
20190905_195715;0.196;8.885;-4.020;0.009;-0.004;0.024;
20190905_195715;0.139;8.990;-4.168;0.020;-0.005;0.025;
20190905_195716;0.132;8.914;-4.092;0.005;-0.005;0.022;
20190905_195716;0.077;8.837;-4.044;0.006;-0.005;0.022;
20190905_195716;0.067;8.887;-4.032;0.007;-0.006;0.023;
20190905_195716;0.180;8.794;-4.015;0.002;-0.006;0.022;
20190905_195716;0.259;8.854;-4.096;0.007;-0.005;0.024;
20190905_195716;0.259;8.942;-4.061;-0.001;-0.006;0.022;
20190905_195716;0.369;8.863;-4.082;0.008;-0.007;0.021;
20190905_195716;0.189;8.973;-4.125;0.007;-0.007;0.017;
20190905_195716;0.278;8.825;-4.111;0.002;-0.009;0.018;
20190905_195717;0.275;8.868;-4.080;0.007;-0.010;0.016;
20190905_195717;0.294;9.043;-4.199;0.014;-0.010;0.015;
20190905_195717;0.280;8.916;-4.058;0.002;-0.013;0.010;
20190905_195717;0.294;8.973;-4.231;0.015;-0.013;0.008;
20190905_195717;0.268;9.100;-4.195;0.007;-0.014;0.007;
20190905_195717;0.249;9.096;-4.274;0.007;-0.015;0.006;
20190905_195717;0.256;9.055;-4.300;0.014;-0.012;0.009;
20190905_195717;0.220;9.036;-4.173;0.010;-0.013;0.010;
20190905_195717;0.342;9.057;-4.238;0.007;-0.010;0.012;
20190905_195718;0.239;9.117;-4.331;0.013;-0.007;0.016;
20190905_195718;0.330;9.093;-4.305;0.010;-0.008;0.021;
20190905_195718;0.302;9.222;-4.322;0.014;-0.007;0.022;
20190905_195718;0.304;9.158;-4.322;0.006;-0.008;0.022;
20190905_195718;0.225;9.177;-4.319;0.011;-0.007;0.022;
20190905_195718;0.402;9.072;-4.398;0.010;-0.006;0.024;
20190905_195718;0.369;9.218;-4.451;0.015;-0.005;0.025;
20190905_195718;0.206;9.268;-4.410;0.013;-0.006;0.024;
20190905_195718;0.259;9.225;-4.336;0.015;-0.007;0.021;
20190905_195718;0.306;9.309;-4.530;0.017;-0.008;0.020;
20190905_195719;0.280;9.165;-4.475;0.014;-0.007;0.022;
20190905_195719;0.431;9.266;-4.496;0.012;-0.008;0.018;
20190905_195719;0.268;9.256;-4.571;0.015;-0.007;0.020;
20190905_195719;0.318;9.222;-4.568;0.010;-0.008;0.016;
20190905_195719;0.376;9.287;-4.628;0.016;-0.008;0.015;
20190905_195719;0.306;9.301;-4.714;0.016;-0.008;0.014;
20190905_195719;0.271;9.388;-4.757;0.009;-0.009;0.013;
20190905_195719;0.316;9.395;-4.848;0.017;-0.009;0.016;
20190905_195719;0.371;9.297;-4.767;0.017;-0.008;0.017;
20190905_195720;0.297;9.436;-4.863;0.024;-0.006;0.017;
20190905_195720;0.256;9.424;-4.841;0.014;-0.006;0.021;
20190905_195720;0.292;9.529;-4.901;0.010;-0.006;0.022;
20190905_195720;0.275;9.586;-4.949;0.007;-0.005;0.021;
20190905_195720;0.340;9.538;-4.951;0.006;-0.004;0.024;
20190905_195720;0.306;9.618;-5.004;0.014;-0.002;0.025;
20190905_195720;0.278;9.594;-4.889;0.007;-0.002;0.025;
20190905_195720;0.239;9.577;-4.978;0.011;-0.002;0.024;
20190905_195720;0.369;9.579;-4.975;0.011;-0.003;0.023;
20190905_195720;0.309;9.622;-4.966;0.004;-0.004;0.024;
20190905_195721;0.316;9.548;-5.009;0.007;-0.003;0.023;
20190905_195721;0.244;9.553;-4.980;0.008;-0.004;0.022;
20190905_195721;0.345;9.706;-4.956;0.007;-0.003;0.022;
20190905_195721;0.316;9.440;-4.918;-0.003;-0.002;0.022;
20190905_195721;0.211;9.579;-4.920;0.006;-0.001;0.025;
20190905_195721;0.227;9.491;-4.908;0.001;-0.002;0.025;
20190905_195721;0.194;9.373;-4.911;0.004;-0.002;0.026;
20190905_195721;0.263;9.366;-4.796;-0.010;-0.002;0.028;
20190905_195721;0.158;9.213;-4.724;0.001;0.001;0.030;
20190905_195721;0.242;9.148;-4.685;-0.014;0.000;0.031;
20190905_195722;0.148;9.064;-4.626;0.006;-0.001;0.032;
20190905_195722;0.208;8.988;-4.573;-0.003;0.000;0.033;
20190905_195722;0.156;8.983;-4.597;0.027;0.001;0.032;
20190905_195722;0.172;8.950;-4.539;-0.041;-0.001;0.031;
20190905_195722;0.251;8.856;-4.623;-0.002;0.000;0.033;
20190905_195722;0.206;8.787;-4.401;0.004;0.002;0.033;
20190905_195722;0.168;8.801;-4.635;-0.022;-0.003;0.031;
20190905_195722;0.105;8.614;-4.293;-0.016;0.001;0.032;
20190905_195722;0.271;8.825;-4.539;0.010;0.000;0.031;
20190905_195723;0.266;8.533;-4.379;-0.009;-0.003;0.028;
20190905_195723;0.201;8.569;-4.439;0.004;-0.004;0.027;
20190905_195723;0.168;8.428;-4.374;-0.010;-0.004;0.026;
20190905_195723;0.206;8.497;-4.391;0.002;-0.003;0.025;
20190905_195723;0.168;8.554;-4.384;-0.004;-0.004;0.023;
20190905_195723;0.333;8.684;-4.523;-0.002;-0.006;0.024;
20190905_195723;0.261;8.636;-4.501;-0.007;-0.006;0.023;
20190905_195723;0.218;8.581;-4.547;0.012;-0.004;0.021;
20190905_195723;0.235;8.672;-4.673;0.017;-0.005;0.022;
20190905_195723;0.206;8.605;-4.559;-0.018;-0.007;0.020;
20190905_195724;0.175;8.727;-4.621;-0.002;-0.007;0.018;
20190905_195724;0.290;8.607;-4.566;-0.007;-0.007;0.018;
20190905_195724;0.180;8.650;-4.638;0.005;-0.007;0.018;
20190905_195724;0.218;8.578;-4.635;-0.001;-0.008;0.017;
20190905_195724;0.215;8.633;-4.669;-0.003;-0.007;0.018;
20190905_195724;0.235;8.547;-4.681;0.007;-0.006;0.021;
20190905_195724;0.215;8.593;-4.736;0.010;-0.008;0.020;
20190905_195724;0.220;8.689;-4.772;0.004;-0.006;0.021;
20190905_195724;0.259;8.657;-4.786;-0.004;-0.007;0.017;
20190905_195725;0.211;8.684;-4.863;-0.002;-0.006;0.020;
20190905_195725;0.254;8.746;-4.817;0.000;-0.007;0.021;
20190905_195725;0.206;8.703;-4.863;-0.005;-0.007;0.021;
20190905_195725;0.242;8.684;-4.824;-0.001;-0.007;0.023;
20190905_195725;0.211;8.720;-4.851;0.001;-0.007;0.023;
20190905_195725;0.158;8.823;-4.875;0.000;-0.007;0.023;
20190905_195725;0.273;8.854;-4.920;0.004;-0.006;0.024;
20190905_195725;0.204;8.832;-4.951;0.001;-0.006;0.025;
20190905_195725;0.235;8.823;-4.944;-0.001;-0.005;0.025;
20190905_195726;0.206;8.894;-4.966;0.001;-0.005;0.026;
20190905_195726;0.232;8.844;-4.891;-0.003;-0.007;0.025;
20190905_195726;0.199;8.906;-4.992;0.004;-0.007;0.024;
20190905_195726;0.247;8.861;-4.966;-0.001;-0.007;0.025;
20190905_195726;0.237;8.882;-4.982;0.000;-0.006;0.025;
20190905_195726;0.208;8.859;-4.970;-0.001;-0.005;0.025;
20190905_195726;0.218;8.868;-4.934;-0.001;-0.006;0.024;
20190905_195726;0.187;8.835;-4.942;-0.002;-0.007;0.025;
20190905_195726;0.232;8.827;-4.949;-0.005;-0.007;0.024;
20190905_195726;0.208;8.825;-4.872;0.001;-0.007;0.024;
20190905_195727;0.182;8.803;-4.932;-0.002;-0.008;0.024;
20190905_195727;0.163;8.815;-4.927;-0.005;-0.007;0.025;
20190905_195727;0.184;8.799;-4.877;-0.006;-0.007;0.025;
20190905_195727;0.194;8.763;-4.839;-0.005;-0.006;0.024;
20190905_195727;0.244;8.820;-4.908;0.004;-0.008;0.026;
20190905_195727;0.165;8.768;-4.865;-0.010;-0.007;0.025;
20190905_195727;0.093;8.866;-4.867;0.000;-0.007;0.026;
20190905_195727;0.247;8.854;-4.858;-0.002;-0.008;0.027;
20190905_195727;0.194;8.741;-4.808;-0.002;-0.007;0.027;
20190905_195728;0.127;8.557;-4.800;-0.004;-0.006;0.030;
20190905_195728;0.172;8.813;-4.891;0.006;-0.006;0.031;
20190905_195728;0.194;8.813;-4.831;-0.006;-0.008;0.029;
20190905_195728;0.172;8.741;-4.805;-0.009;-0.007;0.027;
20190905_195728;0.156;8.837;-4.803;0.001;-0.008;0.027;
20190905_195728;0.299;8.780;-4.851;-0.004;-0.008;0.027;
20190905_195728;0.213;8.775;-4.796;-0.003;-0.009;0.028;
20190905_195728;0.151;8.715;-4.786;-0.005;-0.008;0.027;
20190905_195728;0.153;8.789;-4.786;-0.003;-0.009;0.027;
20190905_195728;0.273;8.751;-4.745;-0.004;-0.009;0.028;
20190905_195729;0.156;8.681;-4.685;-0.009;-0.009;0.027;
20190905_195729;0.247;8.641;-4.647;-0.004;-0.009;0.027;
20190905_195729;0.321;8.557;-4.599;-0.006;-0.010;0.026;
20190905_195729;0.285;8.576;-4.642;-0.009;-0.009;0.026;
20190905_195729;0.290;8.490;-4.535;-0.004;-0.010;0.025;
20190905_195729;0.318;8.485;-4.523;-0.005;-0.009;0.025;
20190905_195729;0.316;8.459;-4.515;-0.005;-0.010;0.022;
20190905_195729;0.381;8.325;-4.475;-0.009;-0.012;0.021;
20190905_195729;0.369;8.351;-4.508;-0.004;-0.010;0.022;
20190905_195730;0.302;8.389;-4.417;-0.007;-0.012;0.018;
20190905_195730;0.357;8.363;-4.456;-0.006;-0.012;0.020;
20190905_195730;0.378;8.478;-4.503;-0.001;-0.012;0.020;
20190905_195730;0.326;8.428;-4.446;-0.008;-0.012;0.018;
20190905_195730;0.328;8.495;-4.477;-0.004;-0.009;0.020;
20190905_195730;0.429;8.425;-4.506;-0.003;-0.010;0.020;
20190905_195730;0.460;8.590;-4.494;-0.003;-0.009;0.020;
20190905_195730;0.357;8.533;-4.568;-0.001;-0.008;0.022;
20190905_195730;0.278;8.456;-4.403;-0.008;-0.008;0.018;
20190905_195730;0.254;8.485;-4.475;0.001;-0.006;0.023;
20190905_195731;0.326;8.461;-4.468;-0.007;-0.005;0.024;
20190905_195731;0.323;8.418;-4.403;-0.010;-0.005;0.024;
20190905_195731;0.311;8.430;-4.434;0.001;-0.004;0.025;
20190905_195731;0.242;8.286;-4.379;-0.006;-0.003;0.029;
20190905_195731;0.304;8.425;-4.436;0.000;-0.002;0.029;
20190905_195731;0.263;8.454;-4.482;0.001;-0.002;0.030;
20190905_195731;0.211;8.423;-4.374;-0.007;-0.001;0.030;
20190905_195731;0.371;8.365;-4.357;-0.003;0.000;0.029;
20190905_195731;0.223;8.447;-4.374;-0.004;0.000;0.033;
20190905_195731;0.242;8.442;-4.322;-0.003;-0.001;0.032;
20190905_195732;0.263;8.373;-4.216;-0.005;-0.001;0.029;
20190905_195732;0.227;8.454;-4.317;-0.007;-0.001;0.031;
20190905_195732;0.182;8.282;-4.214;-0.007;-0.002;0.029;
20190905_195732;0.239;8.267;-4.171;0.000;-0.001;0.030;
20190905_195732;0.323;8.519;-4.243;0.005;-0.003;0.030;
20190905_195732;0.189;8.420;-4.219;-0.015;-0.003;0.026;
20190905_195732;0.175;8.432;-4.175;0.002;-0.003;0.026;
20190905_195732;0.306;8.363;-4.233;-0.004;-0.003;0.028;
20190905_195732;0.225;8.327;-4.099;-0.001;-0.003;0.026;
20190905_195733;0.261;8.411;-4.183;-0.002;-0.003;0.028;
20190905_195733;0.175;8.346;-4.101;-0.017;-0.004;0.025;
20190905_195733;0.180;8.416;-4.144;0.007;-0.005;0.025;
20190905_195733;0.194;8.442;-4.118;-0.004;-0.004;0.026;
20190905_195733;0.177;8.272;-4.104;0.002;-0.006;0.023;
20190905_195733;0.230;8.475;-4.152;0.010;-0.006;0.025;
20190905_195733;0.170;8.456;-4.073;-0.006;-0.004;0.024;
20190905_195733;0.316;8.662;-4.262;0.001;-0.005;0.025;
20190905_195733;0.225;8.521;-4.209;-0.004;-0.008;0.024;
20190905_195734;0.165;8.564;-4.183;0.004;-0.005;0.022;
20190905_195734;0.201;8.588;-4.159;0.001;-0.006;0.022;
20190905_195734;0.259;8.576;-4.192;0.004;-0.007;0.023;
20190905_195734;0.170;8.703;-4.257;-0.003;-0.006;0.023;
20190905_195734;0.170;8.614;-4.219;-0.001;-0.005;0.022;
20190905_195734;0.278;8.744;-4.180;0.005;-0.007;0.022;
20190905_195734;0.163;8.722;-4.221;0.006;-0.007;0.021;
20190905_195734;0.196;8.701;-4.221;0.001;-0.007;0.022;
20190905_195734;0.189;8.763;-4.317;0.009;-0.007;0.022;
20190905_195734;0.225;8.875;-4.226;0.002;-0.007;0.024;
20190905_195735;0.251;8.825;-4.202;0.000;-0.005;0.025;
20190905_195735;0.251;8.866;-4.259;0.007;-0.006;0.025;
20190905_195735;0.215;8.873;-4.255;0.009;-0.005;0.025;
20190905_195735;0.201;8.885;-4.283;-0.002;-0.005;0.024;
20190905_195735;0.215;8.918;-4.295;0.006;-0.006;0.025;
20190905_195735;0.184;8.897;-4.197;0.009;-0.005;0.025;
20190905_195735;0.244;8.940;-4.305;-0.003;-0.006;0.025;
20190905_195735;0.177;8.973;-4.326;0.008;-0.005;0.027;
20190905_195735;0.168;9.029;-4.317;-0.004;-0.005;0.026;
20190905_195736;0.271;8.909;-4.199;0.010;-0.005;0.029;
20190905_195736;0.192;9.050;-4.398;-0.001;-0.005;0.027;
20190905_195736;0.196;8.935;-4.173;0.009;-0.007;0.028;
20190905_195736;0.136;8.933;-4.300;0.000;-0.004;0.028;
20190905_195736;0.192;8.947;-4.214;0.007;-0.006;0.029;
20190905_195736;0.158;9.021;-4.331;-0.002;-0.006;0.027;
20190905_195736;0.271;8.981;-4.178;0.006;-0.007;0.028;
20190905_195736;0.132;9.005;-4.374;-0.002;-0.004;0.028;
20190905_195736;0.146;8.966;-4.156;0.007;-0.007;0.029;
20190905_195736;0.089;9.007;-4.360;-0.001;-0.005;0.029;
20190905_195737;0.194;9.041;-4.185;0.007;-0.008;0.027;
20190905_195737;0.211;8.981;-4.264;0.000;-0.006;0.029;
20190905_195737;0.175;9.000;-4.288;-0.001;-0.008;0.027;
20190905_195737;0.215;8.928;-4.101;0.011;-0.008;0.028;
20190905_195737;0.168;9.002;-4.312;-0.005;-0.006;0.028;
20190905_195737;0.168;8.935;-4.226;0.005;-0.007;0.029;
20190905_195737;0.223;8.971;-4.075;0.007;-0.007;0.027;
20190905_195737;0.268;8.909;-4.216;0.008;-0.009;0.029;
20190905_195737;0.168;8.906;-4.276;0.006;-0.009;0.028;
20190905_195737;0.194;8.847;-4.152;-0.015;-0.007;0.027;
20190905_195738;0.306;8.873;-4.238;0.005;-0.009;0.028;
20190905_195738;0.201;8.847;-4.051;0.005;-0.010;0.027;
20190905_195738;0.170;8.851;-4.092;0.010;-0.009;0.025;
20190905_195738;0.213;8.744;-4.164;-0.005;-0.009;0.025;
20190905_195738;0.256;8.787;-4.175;-0.003;-0.010;0.025;
20190905_195738;0.251;8.875;-4.262;0.001;-0.013;0.024;
20190905_195738;0.323;8.789;-4.073;0.001;-0.013;0.025;
20190905_195738;0.299;8.830;-4.259;0.005;-0.009;0.024;
20190905_195738;0.287;8.806;-4.171;0.002;-0.013;0.022;
20190905_195739;0.333;8.911;-4.164;0.005;-0.013;0.018;
20190905_195739;0.354;8.914;-4.235;0.006;-0.013;0.020;
20190905_195739;0.376;8.930;-4.111;0.012;-0.013;0.021;
20190905_195739;0.306;8.988;-4.216;-0.001;-0.012;0.018;
