Timestamp;Accel_x;Accel_y;Accel_z;Gyro_x;Gyro_y;Gyro_z;
20190926_035134;0.421;9.553;-1.958;-0.116;-0.228;-0.098;
20190926_035134;0.702;9.328;-1.877;-0.007;-0.052;0.062;
20190926_035134;0.529;9.043;-2.014;0.035;-0.049;0.006;
20190926_035134;0.934;10.178;-2.030;-0.014;0.049;-0.024;
20190926_035135;0.646;10.326;-1.635;-0.133;0.049;-0.009;
20190926_035135;0.625;9.378;-1.832;-0.026;-0.002;0.005;
20190926_035135;0.450;8.423;-1.860;-0.024;-0.012;0.005;
20190926_035135;0.575;9.222;-1.640;-0.003;-0.004;0.001;
20190926_035135;0.725;9.864;-1.870;0.005;-0.001;0.007;
20190926_035135;0.759;9.309;-1.743;0.000;0.003;0.003;
20190926_035135;0.792;9.392;-1.750;0.006;-0.001;-0.006;
20190926_035135;0.668;9.258;-1.882;0.006;0.000;-0.000;
20190926_035135;0.721;9.589;-1.903;0.001;0.001;-0.000;
20190926_035135;0.680;9.881;-1.937;-0.003;0.004;-0.005;
20190926_035136;0.452;9.732;-1.815;-0.010;0.004;-0.006;
20190926_035136;0.709;9.354;-1.781;-0.007;0.004;0.006;
20190926_035136;0.563;9.275;-1.623;-0.007;0.004;0.004;
20190926_035136;0.582;9.680;-1.750;0.009;0.004;-0.004;
20190926_035136;0.541;9.179;-1.841;-0.004;0.005;0.006;
20190926_035136;0.745;9.017;-1.788;-0.006;-0.011;0.004;
20190926_035136;0.682;9.546;-1.812;0.010;0.000;-0.003;
20190926_035136;0.663;10.412;-1.891;0.010;-0.001;-0.007;
20190926_035136;0.553;9.699;-1.908;-0.007;0.007;0.007;
20190926_035137;0.620;9.088;-1.844;-0.013;0.000;0.007;
20190926_035137;0.584;9.364;-1.920;0.008;0.003;-0.009;
20190926_035137;0.785;9.716;-1.958;-0.008;0.007;0.002;
20190926_035137;0.728;9.823;-1.925;0.009;0.004;-0.000;
20190926_035137;0.781;9.325;-1.774;-0.013;0.006;-0.000;
20190926_035137;0.611;9.108;-1.753;0.003;0.004;-0.007;
20190926_035137;0.627;9.191;-1.638;0.003;0.003;0.002;
20190926_035137;0.512;9.847;-1.741;0.009;0.003;-0.001;
20190926_035137;0.582;10.036;-1.961;0.001;0.004;-0.003;
20190926_035137;0.455;9.570;-1.824;-0.007;0.007;0.002;
20190926_035138;0.625;9.287;-1.961;-0.003;0.003;0.005;
20190926_035138;0.634;9.309;-1.779;-0.005;0.006;0.001;
20190926_035138;0.685;9.950;-1.903;0.009;0.000;-0.006;
20190926_035138;0.584;9.665;-1.774;-0.006;0.007;0.004;
20190926_035138;0.757;9.330;-1.913;0.006;0.000;0.001;
20190926_035138;0.618;9.007;-1.743;0.000;0.003;-0.000;
20190926_035138;0.599;9.704;-1.865;0.008;-0.002;-0.005;
20190926_035138;0.579;9.910;-1.932;-0.003;0.000;0.002;
20190926_035138;0.611;9.440;-1.839;-0.006;-0.001;-0.000;
20190926_035139;0.515;9.498;-1.867;0.002;-0.003;-0.003;
20190926_035139;0.735;9.713;-1.834;-0.005;0.001;0.004;
20190926_035139;0.527;9.728;-1.844;-0.004;-0.002;-0.000;
20190926_035139;0.654;9.131;-1.846;-0.007;0.000;0.004;
20190926_035139;0.680;9.194;-1.784;0.001;-0.002;-0.000;
20190926_035139;0.797;9.467;-1.738;0.000;-0.002;0.003;
20190926_035139;0.615;9.876;-1.855;0.005;-0.003;-0.003;
20190926_035139;0.591;9.481;-1.913;-0.004;0.001;-0.000;
20190926_035139;0.596;9.292;-1.817;-0.009;0.000;-0.000;
20190926_035139;0.699;9.594;-1.903;0.005;-0.002;-0.003;
20190926_035140;0.713;9.747;-1.812;-0.009;0.000;0.001;
20190926_035140;0.692;9.644;-1.858;0.005;0.000;-0.001;
20190926_035140;0.704;9.177;-1.714;-0.005;-0.001;0.004;
20190926_035140;0.582;9.285;-1.808;0.010;-0.003;-0.006;
20190926_035140;0.601;9.467;-1.954;-0.001;0.000;0.003;
20190926_035140;0.709;9.706;-1.923;0.005;-0.004;-0.000;
20190926_035140;0.634;9.706;-1.978;-0.010;-0.001;0.001;
20190926_035140;0.474;9.213;-1.772;-0.010;-0.002;0.003;
20190926_035140;0.728;9.455;-1.870;0.006;-0.005;-0.001;
20190926_035141;0.709;9.476;-1.822;-0.007;0.000;0.001;
20190926_035141;0.646;9.771;-1.887;0.005;-0.005;-0.003;
20190926_035141;0.723;9.273;-1.920;-0.004;-0.003;0.002;
20190926_035141;0.706;9.436;-1.834;0.006;-0.001;-0.000;
20190926_035141;0.735;9.424;-1.882;-0.007;-0.003;0.004;
20190926_035141;0.721;9.380;-1.860;-0.003;-0.006;0.001;
20190926_035141;0.584;9.244;-1.865;-0.002;-0.005;0.003;
20190926_035141;0.711;9.438;-1.736;0.000;-0.006;0.002;
20190926_035141;0.642;9.517;-1.970;0.000;-0.005;-0.000;
20190926_035141;0.730;9.541;-1.879;-0.005;-0.006;0.001;
20190926_035142;0.716;9.627;-2.054;-0.006;-0.010;-0.003;
20190926_035142;0.575;9.357;-1.760;-0.015;-0.005;0.002;
20190926_035142;0.749;9.531;-1.870;-0.001;-0.009;-0.000;
20190926_035142;0.711;9.553;-1.820;-0.011;-0.003;0.004;
20190926_035142;0.692;9.493;-1.908;0.008;-0.004;-0.003;
20190926_035142;0.747;9.383;-1.757;-0.004;-0.003;0.004;
20190926_035142;0.706;9.404;-1.875;0.006;-0.004;-0.003;
20190926_035142;0.718;9.586;-1.954;0.000;-0.006;0.001;
20190926_035142;0.728;9.613;-1.841;0.003;-0.004;-0.000;
20190926_035143;0.790;9.517;-1.786;-0.002;0.001;0.001;
20190926_035143;0.611;9.428;-1.865;-0.013;-0.004;0.003;
20190926_035143;0.821;9.754;-2.059;0.016;-0.004;-0.003;
20190926_035143;0.804;9.661;-2.040;-0.015;-0.001;0.001;
20190926_035143;0.661;9.440;-1.707;-0.003;-0.003;-0.000;
20190926_035143;0.666;9.084;-1.712;-0.004;-0.001;-0.001;
20190926_035143;0.709;9.486;-1.741;0.008;-0.005;-0.006;
20190926_035143;0.795;9.795;-1.911;0.007;0.001;0.001;
20190926_035143;0.661;9.828;-1.865;0.003;-0.004;-0.004;
20190926_035144;0.529;9.369;-1.872;-0.008;-0.003;0.002;
20190926_035144;0.625;9.345;-1.777;-0.010;0.000;0.003;
20190926_035144;0.596;9.517;-1.882;0.005;-0.001;-0.001;
20190926_035144;0.735;9.656;-1.889;-0.002;0.000;-0.003;
20190926_035144;0.675;9.656;-1.975;-0.001;0.000;-0.005;
20190926_035144;0.766;9.390;-1.872;-0.013;0.003;0.001;
20190926_035144;0.812;9.436;-1.853;0.005;-0.003;-0.006;
20190926_035144;0.651;9.275;-1.753;-0.003;0.001;-0.000;
20190926_035144;0.611;9.613;-1.753;0.001;-0.001;-0.001;
20190926_035144;0.570;9.507;-1.899;0.001;0.004;0.005;
20190926_035145;0.510;9.476;-1.879;0.003;0.001;-0.003;
20190926_035145;0.582;9.452;-1.925;-0.008;0.001;0.005;
20190926_035145;0.713;9.668;-2.035;0.001;0.001;-0.003;
20190926_035145;0.745;9.627;-1.994;-0.007;0.004;-0.003;
20190926_035145;0.637;9.330;-1.841;-0.007;0.004;-0.004;
20190926_035145;0.833;9.373;-1.970;-0.002;0.003;0.001;
20190926_035145;0.723;9.637;-1.750;-0.010;0.004;0.001;
20190926_035145;0.675;9.711;-1.793;0.012;-0.001;-0.005;
20190926_035145;0.539;9.486;-1.676;-0.013;0.006;0.004;
20190926_035146;0.575;9.457;-1.726;-0.002;0.005;0.002;
20190926_035146;0.644;9.345;-1.867;-0.008;0.006;-0.000;
20190926_035146;0.570;9.912;-1.915;0.012;0.000;-0.006;
20190926_035146;0.589;9.309;-1.932;-0.009;0.008;0.006;
20190926_035146;0.625;9.246;-1.851;0.002;0.005;-0.003;
20190926_035146;0.539;9.653;-1.887;0.001;0.001;-0.005;
20190926_035146;0.606;9.756;-1.745;-0.004;0.007;0.004;
20190926_035146;0.630;9.754;-1.848;-0.002;0.003;-0.004;
20190926_035146;0.632;9.213;-1.827;-0.015;0.007;0.003;
20190926_035146;0.740;9.316;-1.803;0.008;0.003;-0.007;
20190926_035147;0.742;9.354;-1.729;0.002;0.006;0.003;
20190926_035147;0.560;9.618;-1.891;0.013;0.000;-0.007;
20190926_035147;0.500;9.527;-2.124;0.000;0.007;-0.001;
20190926_035147;0.474;9.227;-1.966;-0.003;0.001;0.002;
20190926_035147;0.433;9.280;-1.820;0.000;-0.002;0.001;
20190926_035147;0.510;9.804;-1.774;0.000;-0.003;-0.003;
20190926_035147;0.486;9.835;-1.997;-0.008;-0.004;-0.000;
20190926_035147;0.433;9.428;-1.858;-0.010;-0.005;0.004;
20190926_035147;0.666;9.510;-1.820;-0.008;-0.008;0.003;
20190926_035148;0.646;9.450;-1.757;-0.008;-0.005;0.002;
20190926_035148;0.711;9.754;-2.088;0.001;-0.008;0.002;
20190926_035148;0.706;9.187;-1.899;-0.016;-0.004;0.006;
20190926_035148;0.776;9.098;-1.618;0.005;-0.007;-0.001;
20190926_035148;0.869;10.065;-1.659;0.018;-0.008;-0.005;
20190926_035148;0.685;10.034;-1.748;0.015;-0.005;-0.003;
20190926_035148;0.661;9.062;-1.956;-0.006;-0.004;0.007;
20190926_035148;0.541;9.282;-1.736;0.003;-0.006;-0.007;
20190926_035148;0.656;9.814;-2.059;-0.002;-0.005;0.004;
20190926_035148;0.776;10.051;-2.009;-0.011;-0.001;0.001;
20190926_035149;0.716;9.582;-1.808;-0.014;0.001;-0.003;
20190926_035149;0.630;9.050;-1.808;-0.011;-0.002;-0.001;
20190926_035149;0.838;9.330;-1.896;0.006;-0.004;-0.000;
20190926_035149;0.824;9.900;-1.980;-0.003;0.003;0.003;
20190926_035149;0.654;9.728;-1.963;-0.011;0.000;0.003;
20190926_035149;0.625;8.945;-1.664;-0.014;0.003;0.009;
20190926_035149;0.785;9.246;-1.717;0.005;-0.001;-0.003;
20190926_035149;0.912;9.723;-1.841;-0.002;0.006;-0.005;
20190926_035149;0.706;9.641;-1.812;0.008;-0.003;-0.006;
20190926_035150;0.567;9.510;-1.812;-0.005;-0.001;-0.001;
20190926_035150;0.615;9.462;-1.848;0.009;-0.001;-0.001;
20190926_035150;0.546;9.524;-2.004;0.008;0.004;-0.005;
20190926_035150;0.570;9.943;-2.097;0.008;0.003;-0.004;
20190926_035150;0.661;9.574;-1.990;-0.016;0.009;0.006;
20190926_035150;0.620;9.153;-1.817;-0.011;0.003;-0.004;
20190926_035150;0.723;9.546;-1.719;-0.006;0.003;-0.005;
20190926_035150;0.742;9.761;-1.654;0.002;0.009;0.001;
20190926_035150;0.670;9.380;-1.841;0.006;0.004;-0.003;
20190926_035151;0.534;9.146;-1.633;0.001;0.006;0.001;
20190926_035151;0.429;9.412;-1.812;0.012;-0.001;-0.004;
20190926_035151;0.551;9.579;-1.858;0.002;0.003;0.006;
20190926_035151;0.603;10.116;-1.908;0.003;-0.003;-0.007;
20190926_035151;0.694;9.699;-1.997;-0.018;0.005;0.002;
20190926_035151;0.464;9.208;-1.887;-0.019;0.000;-0.003;
20190926_035151;0.795;9.843;-1.901;-0.005;0.000;-0.001;
20190926_035151;0.630;9.838;-1.949;-0.013;0.005;-0.000;
20190926_035151;0.601;9.907;-1.839;-0.004;0.004;0.002;
20190926_035151;0.400;8.559;-1.573;-0.022;0.008;0.010;
20190926_035152;0.769;8.418;-1.578;-0.009;0.004;0.004;
20190926_035152;0.328;9.215;-1.671;0.022;-0.002;-0.013;
20190926_035152;0.740;9.919;-1.875;0.013;0.001;-0.007;
20190926_035152;0.673;10.235;-2.298;0.001;0.009;-0.003;
20190926_035152;0.646;9.902;-2.073;-0.008;-0.001;-0.012;
20190926_035152;0.448;9.622;-2.112;-0.003;0.000;-0.000;
20190926_035152;0.795;9.512;-1.927;-0.021;0.005;0.004;
20190926_035152;0.632;9.725;-1.918;-0.010;0.004;-0.001;
20190926_035152;0.450;9.227;-1.700;-0.013;0.006;0.007;
20190926_035153;0.560;9.421;-1.750;0.000;0.004;0.003;
20190926_035153;0.560;9.275;-1.855;0.006;0.004;0.002;
20190926_035153;0.577;9.476;-1.920;0.002;0.000;-0.007;
20190926_035153;0.551;9.409;-1.887;-0.005;0.000;-0.004;
20190926_035153;0.445;9.100;-1.805;0.003;0.000;0.003;
20190926_035153;0.529;9.728;-2.097;0.010;-0.002;-0.005;
20190926_035153;0.644;10.123;-2.040;-0.001;0.004;0.001;
20190926_035153;0.546;9.663;-2.040;-0.001;0.001;0.003;
20190926_035153;0.520;8.981;-1.810;-0.017;-0.004;0.006;
20190926_035153;0.749;9.347;-1.791;0.001;-0.007;-0.005;
20190926_035154;0.646;9.596;-1.829;0.003;-0.003;0.001;
20190926_035154;0.625;9.637;-1.786;0.010;-0.006;0.001;
20190926_035154;0.646;9.500;-1.674;-0.005;-0.003;0.003;
20190926_035154;0.534;9.337;-1.633;-0.005;-0.006;0.001;
20190926_035154;0.512;9.323;-1.865;0.005;-0.005;0.001;
20190926_035154;0.649;9.773;-1.927;0.000;-0.006;0.001;
20190926_035154;0.716;9.969;-2.025;-0.009;-0.005;-0.000;
20190926_035154;0.582;9.438;-1.891;-0.006;-0.004;0.001;
20190926_035154;0.692;9.074;-2.109;-0.004;-0.003;0.004;
20190926_035155;0.730;9.431;-1.958;0.001;-0.004;-0.003;
20190926_035155;0.625;9.862;-2.057;-0.001;-0.005;-0.000;
20190926_035155;0.627;9.443;-1.755;-0.008;0.000;0.007;
20190926_035155;0.682;9.273;-1.872;0.002;-0.002;0.003;
20190926_035155;0.812;9.414;-1.891;-0.006;0.000;0.002;
20190926_035155;0.711;9.756;-1.834;0.009;-0.003;-0.000;
20190926_035155;0.747;9.455;-1.786;0.020;-0.003;-0.001;
20190926_035155;0.584;9.325;-1.616;0.003;-0.006;-0.003;
20190926_035155;0.694;9.570;-1.647;0.027;-0.008;-0.004;
20190926_035155;0.627;9.692;-1.879;0.000;-0.001;0.006;
20190926_035156;0.625;9.522;-2.025;-0.013;0.003;0.007;
20190926_035156;0.560;9.323;-1.855;-0.029;0.010;-0.006;
20190926_035156;0.601;9.522;-2.167;-0.010;0.000;-0.006;
20190926_035156;0.654;9.881;-2.018;-0.014;0.003;-0.001;
20190926_035156;0.644;9.857;-1.992;0.003;0.003;-0.008;
20190926_035156;0.505;9.213;-1.729;-0.017;0.006;0.005;
20190926_035156;0.555;9.103;-1.592;0.002;0.001;0.005;
20190926_035156;0.558;9.436;-1.671;0.026;-0.004;-0.005;
20190926_035156;0.529;9.857;-1.712;0.011;-0.003;-0.006;
20190926_035157;0.529;9.546;-1.990;-0.001;-0.002;-0.000;
20190926_035157;0.522;9.400;-2.028;-0.004;-0.004;-0.001;
20190926_035157;0.687;9.304;-1.978;-0.004;-0.003;-0.003;
20190926_035157;0.706;9.706;-1.887;0.002;-0.005;-0.003;
20190926_035157;0.699;9.732;-1.884;-0.003;-0.002;0.002;
20190926_035157;0.634;9.246;-1.638;-0.004;0.000;0.005;
20190926_035157;0.718;9.337;-1.669;0.005;-0.003;-0.000;
20190926_035157;0.797;9.397;-1.800;0.000;-0.001;0.003;
20190926_035157;0.646;9.582;-1.688;0.011;-0.005;-0.006;
20190926_035157;0.670;9.558;-1.815;-0.003;-0.003;0.001;
20190926_035158;0.613;9.522;-1.820;-0.007;-0.003;-0.000;
20190926_035158;0.555;9.476;-2.006;-0.002;-0.003;0.001;
20190926_035158;0.694;9.701;-1.932;-0.006;-0.001;0.002;
20190926_035158;0.673;9.550;-2.021;-0.018;-0.001;0.001;
20190926_035158;0.608;9.225;-1.853;-0.006;0.000;0.002;
20190926_035158;0.740;9.527;-1.781;0.002;-0.002;-0.000;
20190926_035158;0.735;9.596;-1.724;-0.004;0.003;0.004;
20190926_035158;0.575;9.718;-1.741;0.002;-0.001;-0.003;
20190926_035158;0.527;9.055;-1.709;-0.002;0.003;0.005;
20190926_035159;0.634;9.301;-1.690;0.007;-0.001;-0.000;
20190926_035159;0.596;9.553;-1.829;0.005;-0.001;-0.001;
20190926_035159;0.622;9.955;-1.894;0.007;0.000;-0.003;
20190926_035159;0.632;9.632;-1.937;-0.005;0.001;-0.000;
20190926_035159;0.618;9.297;-1.956;-0.008;0.000;0.001;
20190926_035159;0.649;9.349;-1.980;-0.007;-0.002;-0.003;
20190926_035159;0.678;9.704;-1.855;-0.001;-0.001;-0.004;
20190926_035159;0.668;9.656;-1.772;-0.005;0.000;0.001;
20190926_035159;0.548;9.146;-1.695;0.002;0.004;-0.000;
20190926_035159;0.699;9.325;-1.642;0.011;-0.002;-0.006;
20190926_035200;0.534;9.680;-1.686;0.007;0.003;0.001;
20190926_035200;0.642;9.723;-1.647;0.008;0.000;-0.000;
20190926_035200;0.579;9.428;-1.788;-0.004;0.001;-0.001;
20190926_035200;0.572;9.548;-1.810;-0.013;0.000;-0.000;
20190926_035200;0.534;9.481;-1.987;-0.002;-0.001;-0.000;
20190926_035200;0.723;9.677;-1.882;0.000;0.000;-0.004;
20190926_035200;0.680;9.677;-2.016;-0.009;-0.001;-0.004;
20190926_035200;0.599;9.385;-1.875;-0.005;0.003;0.001;
20190926_035200;0.709;9.380;-1.736;-0.003;0.001;0.005;
20190926_035201;0.733;9.474;-1.781;-0.007;0.001;-0.001;
20190926_035201;0.579;9.752;-1.932;0.006;0.000;-0.001;
20190926_035201;0.613;9.172;-1.662;-0.002;0.001;0.005;
20190926_035201;0.685;9.242;-1.686;0.009;0.000;-0.003;
20190926_035201;0.527;9.548;-1.753;0.012;0.000;-0.001;
20190926_035201;0.572;9.752;-1.618;0.005;-0.001;-0.001;
20190926_035201;0.625;9.483;-1.939;0.001;0.001;0.004;
20190926_035201;0.575;9.297;-1.781;0.001;0.000;-0.000;
20190926_035201;0.539;9.462;-2.085;0.009;-0.003;-0.005;
20190926_035201;0.682;9.974;-2.071;0.002;-0.002;-0.003;
20190926_035202;0.709;9.874;-2.047;-0.004;0.003;0.001;
20190926_035202;0.536;9.124;-1.848;-0.016;0.004;-0.000;
20190926_035202;0.634;9.376;-2.011;0.005;-0.003;-0.004;
20190926_035202;0.711;9.548;-1.913;-0.010;0.003;0.005;
20190926_035202;0.603;9.931;-1.937;0.005;-0.002;-0.001;
20190926_035202;0.543;9.239;-1.748;-0.007;0.006;0.005;
20190926_035202;0.737;9.151;-1.738;0.008;0.005;0.002;
20190926_035202;0.634;9.376;-1.705;0.014;0.003;-0.000;
20190926_035202;0.666;9.673;-1.829;0.005;0.001;-0.004;
20190926_035203;0.634;9.704;-2.078;-0.002;0.001;-0.003;
20190926_035203;0.527;9.424;-1.918;-0.017;0.004;0.001;
20190926_035203;0.670;9.507;-1.944;0.003;0.003;-0.000;
20190926_035203;0.618;9.639;-1.915;-0.004;0.003;-0.003;
20190926_035203;0.575;9.797;-2.152;-0.001;0.003;0.001;
20190926_035203;0.591;9.124;-1.867;-0.019;0.005;0.007;
20190926_035203;0.697;9.160;-1.803;-0.002;0.001;0.001;
20190926_035203;0.675;9.546;-1.908;-0.002;0.003;-0.001;
20190926_035203;0.725;9.716;-1.903;0.001;0.001;0.003;
20190926_035203;0.613;9.199;-1.865;-0.007;0.001;0.001;
20190926_035204;0.589;9.297;-1.678;0.010;0.000;-0.001;
20190926_035204;0.654;9.675;-1.822;0.018;-0.002;0.002;
20190926_035204;0.611;9.689;-1.908;0.009;0.000;-0.000;
20190926_035204;0.460;9.208;-1.985;-0.013;-0.001;0.002;
20190926_035204;0.613;9.141;-1.978;-0.016;-0.004;0.001;
20190926_035204;0.536;9.649;-1.951;0.006;-0.007;-0.005;
20190926_035204;0.764;9.823;-1.879;-0.009;-0.005;0.001;
20190926_035204;0.752;9.847;-1.956;-0.003;-0.004;-0.004;
20190926_035204;0.608;9.002;-1.829;-0.003;-0.001;0.004;
20190926_035204;0.711;8.962;-1.681;0.005;-0.004;0.002;
20190926_035205;0.608;9.333;-1.877;0.003;-0.003;0.002;
20190926_035205;0.661;9.847;-1.875;0.009;-0.005;0.001;
20190926_035205;0.649;9.543;-1.942;0.002;-0.003;0.002;
20190926_035205;0.532;9.210;-1.865;-0.007;-0.005;0.004;
20190926_035205;0.702;9.397;-2.116;0.005;-0.008;-0.005;
20190926_035205;0.694;9.912;-2.033;-0.011;-0.003;-0.001;
20190926_035205;0.735;9.720;-1.949;-0.007;-0.004;0.003;
20190926_035205;0.611;9.060;-1.702;-0.007;-0.002;0.002;
20190926_035205;0.716;9.335;-2.064;0.000;-0.008;0.001;
20190926_035206;0.725;9.855;-1.879;-0.009;-0.004;0.002;
20190926_035206;0.678;9.749;-1.887;-0.001;-0.003;0.003;
20190926_035206;0.634;9.048;-1.738;-0.001;-0.002;0.004;
20190926_035206;0.783;8.887;-1.779;0.009;-0.004;-0.001;
20190926_035206;0.718;9.613;-1.824;0.015;-0.005;-0.006;
20190926_035206;0.725;9.943;-1.846;0.008;-0.004;-0.004;
20190926_035206;0.685;9.677;-1.918;-0.011;-0.003;0.003;
20190926_035206;0.577;9.301;-1.796;-0.015;-0.007;0.005;
20190926_035206;0.529;9.407;-1.949;0.001;-0.006;0.001;
20190926_035206;0.718;9.804;-1.975;-0.003;-0.003;0.001;
20190926_035207;0.716;9.639;-2.006;0.000;-0.002;0.001;
20190926_035207;0.721;8.983;-1.815;-0.015;-0.004;0.001;
20190926_035207;0.733;9.455;-1.733;0.009;-0.006;-0.004;
20190926_035207;0.721;9.811;-1.803;0.011;-0.002;0.002;
20190926_035207;0.663;9.843;-1.855;0.013;-0.002;-0.000;
20190926_035207;0.620;9.395;-1.970;-0.007;-0.003;0.002;
20190926_035207;0.594;9.249;-1.836;-0.009;-0.002;0.002;
20190926_035207;0.627;9.364;-1.853;-0.004;-0.007;-0.001;
20190926_035207;0.735;9.833;-1.899;0.007;-0.003;-0.006;
20190926_035208;0.675;9.694;-2.076;-0.004;-0.003;-0.004;
20190926_035208;0.687;9.182;-1.815;-0.010;0.000;0.004;
20190926_035208;0.579;9.220;-1.877;0.003;-0.002;-0.000;
20190926_035208;0.694;9.620;-1.951;0.001;0.000;-0.000;
20190926_035208;0.694;9.701;-1.990;0.001;0.000;0.001;
20190926_035208;0.634;9.366;-1.894;-0.015;0.001;0.003;
20190926_035208;0.733;9.371;-1.805;0.010;-0.001;-0.004;
20190926_035208;0.713;9.488;-1.829;0.006;0.003;-0.003;
20190926_035208;0.632;9.543;-1.887;-0.008;0.001;0.004;
20190926_035208;0.505;9.359;-1.595;-0.001;0.003;0.004;
20190926_035209;0.637;9.383;-1.702;0.009;0.003;-0.000;
20190926_035209;0.570;9.380;-1.848;0.003;0.004;0.002;
20190926_035209;0.555;9.651;-2.045;0.014;-0.001;-0.006;
20190926_035209;0.644;9.670;-2.207;0.001;0.003;-0.000;
20190926_035209;0.702;9.424;-1.870;-0.019;0.004;0.001;
20190926_035209;0.670;9.251;-1.896;-0.003;0.000;-0.001;
20190926_035209;0.709;9.536;-1.597;-0.006;0.005;0.002;
20190926_035209;0.618;9.759;-1.709;0.005;0.003;-0.003;
20190926_035209;0.584;9.323;-1.772;0.006;0.005;-0.000;
20190926_035210;0.702;9.256;-1.884;0.011;0.003;-0.006;
20190926_035210;0.589;9.515;-1.966;0.003;0.003;-0.004;
20190926_035210;0.587;9.936;-1.990;0.011;0.000;-0.005;
20190926_035210;0.642;9.572;-1.999;-0.005;0.008;0.003;
20190926_035210;0.438;9.208;-1.942;-0.010;0.005;0.002;
20190926_035210;0.534;9.199;-2.078;-0.004;0.003;0.002;
20190926_035210;0.543;9.900;-1.968;0.005;0.003;-0.000;
20190926_035210;0.575;9.816;-2.121;-0.001;0.005;-0.000;
20190926_035210;0.608;9.050;-1.836;-0.023;0.005;0.003;
20190926_035210;0.649;9.242;-1.903;0.009;-0.001;-0.003;
20190926_035211;0.685;9.957;-1.664;0.003;0.005;-0.001;
20190926_035211;0.558;9.950;-1.872;0.012;0.001;-0.001;
20190926_035211;0.524;9.194;-1.786;-0.001;0.006;0.004;
20190926_035211;0.644;9.354;-1.827;0.007;-0.001;-0.001;
20190926_035211;0.591;9.754;-1.635;0.006;0.003;0.003;
20190926_035211;0.637;9.934;-1.879;0.023;0.000;-0.003;
20190926_035211;0.587;9.390;-1.889;-0.002;0.001;0.002;
20190926_035211;0.613;9.108;-1.791;0.007;-0.002;-0.003;
20190926_035211;0.546;9.369;-1.690;0.011;-0.003;-0.004;
20190926_035212;0.702;9.962;-1.918;0.012;-0.002;-0.004;
20190926_035212;0.654;9.797;-2.057;-0.001;-0.001;-0.004;
20190926_035212;0.625;9.249;-1.987;-0.013;0.001;0.001;
20190926_035212;0.594;9.134;-1.848;-0.004;-0.004;-0.001;
20190926_035212;0.754;9.517;-1.810;-0.001;-0.002;-0.001;
20190926_035212;0.646;9.957;-2.025;0.007;-0.002;-0.006;
20190926_035212;0.579;9.306;-1.714;-0.015;0.001;0.005;
20190926_035212;0.642;9.285;-1.705;-0.001;-0.003;-0.003;
20190926_035212;0.654;9.457;-1.633;0.003;0.001;0.003;
20190926_035212;0.596;9.555;-1.867;0.003;-0.002;0.002;
20190926_035213;0.654;9.364;-1.942;-0.006;-0.002;0.002;
20190926_035213;0.572;9.464;-1.743;-0.018;0.000;0.007;
20190926_035213;0.553;9.531;-1.901;0.007;-0.004;-0.001;
20190926_035213;0.704;9.658;-1.889;0.023;-0.006;-0.007;
20190926_035213;0.733;9.596;-1.877;-0.022;0.004;0.003;
20190926_035213;0.582;9.273;-1.805;-0.013;-0.006;0.002;
20190926_035213;0.778;9.026;-1.896;0.000;-0.003;-0.001;
20190926_035213;0.649;9.900;-1.923;0.010;-0.002;-0.004;
20190926_035213;0.709;9.917;-2.045;-0.003;-0.004;-0.005;
20190926_035214;0.548;9.175;-1.738;-0.019;0.000;0.005;
20190926_035214;0.639;9.122;-1.786;-0.005;-0.004;-0.000;
20190926_035214;0.742;9.586;-1.803;0.000;-0.004;-0.001;
20190926_035214;0.606;10.056;-1.937;0.000;-0.001;-0.001;
20190926_035214;0.572;9.438;-1.877;-0.022;-0.002;0.006;
20190926_035214;0.663;9.129;-1.908;0.002;-0.004;-0.000;
20190926_035214;0.718;9.515;-1.774;-0.004;-0.005;-0.003;
20190926_035214;0.783;9.878;-1.815;-0.002;-0.002;-0.004;
20190926_035214;0.579;9.450;-1.659;-0.008;-0.002;0.005;
20190926_035215;0.682;9.373;-1.674;0.005;-0.001;-0.001;
20190926_035215;0.644;9.515;-1.877;0.005;0.000;-0.000;
20190926_035215;0.654;9.708;-1.867;0.009;-0.003;-0.003;
20190926_035215;0.611;9.524;-2.018;-0.003;-0.001;0.002;
20190926_035215;0.646;9.158;-1.784;-0.001;-0.004;-0.001;
20190926_035215;0.570;9.352;-2.033;0.010;-0.003;-0.001;
20190926_035215;0.625;9.675;-1.930;0.005;-0.002;0.002;
20190926_035215;0.627;9.541;-2.057;-0.003;-0.002;0.003;
20190926_035215;0.555;9.357;-1.913;-0.007;-0.001;0.002;
20190926_035215;0.713;9.292;-2.059;0.001;0.001;0.003;
20190926_035216;0.639;9.610;-1.925;-0.002;0.000;0.002;
20190926_035216;0.658;9.869;-1.923;0.001;0.000;0.002;
20190926_035216;0.551;9.479;-1.743;-0.008;0.000;0.003;
20190926_035216;0.666;9.340;-1.846;-0.002;-0.002;0.001;
20190926_035216;0.654;9.215;-1.810;-0.001;0.003;0.003;
20190926_035216;0.766;9.558;-1.822;0.008;-0.002;-0.004;
20190926_035216;0.692;9.670;-2.006;-0.001;0.000;-0.003;
20190926_035216;0.673;9.450;-1.867;0.003;-0.002;-0.004;
20190926_035216;0.606;9.436;-1.863;-0.002;0.000;-0.001;
20190926_035217;0.678;9.653;-1.858;0.003;-0.001;-0.003;
20190926_035217;0.591;9.570;-1.908;-0.011;0.003;-0.000;
20190926_035217;0.613;9.400;-1.877;-0.008;0.000;0.004;
20190926_035217;0.558;9.201;-1.836;-0.006;0.000;0.002;
20190926_035217;0.721;9.553;-1.700;-0.003;0.001;-0.000;
20190926_035217;0.551;9.888;-1.963;0.007;0.000;-0.003;
20190926_035217;0.668;9.325;-1.824;-0.003;0.003;-0.000;
20190926_035217;0.682;9.309;-1.707;0.006;0.001;-0.003;
20190926_035217;0.699;9.450;-1.784;0.001;0.003;-0.001;
20190926_035217;0.615;9.653;-1.939;0.012;0.000;-0.003;
20190926_035218;0.663;9.747;-1.860;-0.001;0.001;-0.000;
20190926_035218;0.548;9.515;-1.762;-0.015;0.001;0.004;
20190926_035218;0.543;9.201;-1.781;-0.002;0.001;0.002;
20190926_035218;0.582;9.455;-1.848;0.002;0.001;-0.000;
20190926_035218;0.685;9.594;-1.958;0.005;0.000;-0.000;
20190926_035218;0.599;9.325;-1.803;-0.008;0.003;0.003;
20190926_035218;0.553;9.412;-1.899;0.002;-0.002;-0.003;
20190926_035218;0.625;9.682;-1.817;-0.002;0.000;0.002;
20190926_035218;0.512;9.919;-1.846;0.005;-0.005;-0.003;
20190926_035218;0.632;9.376;-1.906;-0.006;0.000;0.005;
20190926_035219;0.699;9.620;-1.774;0.011;-0.007;-0.005;
20190926_035219;0.517;9.764;-1.927;0.003;-0.006;0.003;
20190926_035219;0.584;9.579;-1.712;-0.002;-0.005;0.002;
20190926_035219;0.651;9.550;-1.901;0.001;-0.005;-0.000;
20190926_035219;0.596;9.433;-1.951;-0.015;-0.003;0.006;
20190926_035219;0.587;9.390;-1.918;-0.003;-0.006;-0.000;
20190926_035219;0.752;9.594;-1.836;-0.007;-0.005;-0.001;
20190926_035219;0.713;9.562;-1.999;0.006;-0.006;-0.004;
20190926_035219;0.747;9.366;-1.669;-0.010;-0.003;0.002;
20190926_035220;0.790;9.361;-1.839;-0.004;-0.003;0.001;
20190926_035220;0.769;9.608;-1.887;-0.007;-0.001;0.002;
20190926_035220;0.632;9.850;-1.817;0.008;-0.004;-0.000;
20190926_035220;0.558;9.596;-2.042;-0.007;-0.002;0.002;
20190926_035220;0.752;9.364;-1.738;0.007;-0.004;-0.004;
20190926_035220;0.642;9.371;-1.774;-0.005;0.000;0.001;
20190926_035220;0.551;9.761;-1.863;0.012;-0.006;-0.006;
20190926_035220;0.752;9.436;-2.057;-0.008;-0.003;0.004;
20190926_035220;0.637;9.555;-1.858;0.005;-0.004;-0.003;
20190926_035220;0.639;9.342;-1.930;0.000;0.000;0.004;
20190926_035221;0.615;9.737;-1.836;0.000;-0.004;0.001;
20190926_035221;0.589;9.455;-2.018;-0.010;0.001;0.003;
20190926_035221;0.737;9.203;-1.709;-0.017;0.001;0.004;
20190926_035221;0.625;9.048;-1.855;0.000;0.001;-0.000;
20190926_035221;0.725;9.455;-1.939;0.000;-0.002;-0.000;
20190926_035221;0.771;9.699;-1.915;0.002;-0.001;-0.001;
20190926_035221;0.553;9.517;-1.731;0.001;0.003;-0.000;
20190926_035221;0.589;9.481;-1.834;0.012;-0.002;-0.000;
20190926_035221;0.620;9.213;-2.047;-0.002;0.003;0.003;
20190926_035221;0.685;9.668;-2.076;-0.002;-0.002;-0.003;
20190926_035222;0.551;9.615;-2.172;-0.007;0.003;-0.000;
20190926_035222;0.721;9.392;-2.069;0.006;-0.001;-0.005;
20190926_035222;0.845;9.416;-1.899;-0.002;0.003;-0.001;
20190926_035222;0.675;9.804;-1.958;0.007;0.000;-0.007;
20190926_035222;0.606;9.572;-1.855;-0.009;0.003;0.003;
20190926_035222;0.620;9.129;-1.788;-0.014;0.004;0.005;
20190926_035222;0.496;9.062;-1.879;-0.001;0.005;0.002;
20190926_035222;0.620;9.804;-1.918;0.006;0.003;-0.001;
20190926_035222;0.630;9.938;-1.846;0.002;0.005;-0.001;
20190926_035223;0.596;9.450;-1.736;-0.006;0.004;-0.000;
20190926_035223;0.649;9.029;-1.906;0.001;0.003;-0.005;
20190926_035223;0.702;9.608;-1.719;-0.007;0.004;-0.003;
20190926_035223;0.661;10.281;-1.975;0.022;0.001;-0.003;
20190926_035223;0.493;9.625;-1.824;-0.017;0.007;0.005;
20190926_035223;0.469;9.254;-1.839;0.013;0.001;-0.001;
20190926_035223;0.553;9.366;-1.669;-0.003;0.001;0.002;
20190926_035223;0.630;9.785;-1.824;0.007;0.003;-0.000;
20190926_035223;0.524;9.483;-1.815;0.001;0.004;-0.000;
20190926_035223;0.694;9.352;-1.611;0.008;0.000;-0.005;
20190926_035224;0.675;9.457;-1.741;0.002;0.003;-0.003;
20190926_035224;0.747;9.883;-1.930;0.010;-0.001;-0.005;
20190926_035224;0.651;9.538;-1.935;-0.008;0.004;0.001;
20190926_035224;0.572;9.163;-1.848;-0.011;0.005;0.005;
20190926_035224;0.615;8.950;-1.968;-0.005;0.006;0.003;
20190926_035224;0.603;9.756;-1.867;0.005;0.004;-0.006;
20190926_035224;0.611;10.008;-2.047;0.000;0.006;-0.001;
20190926_035224;0.606;9.007;-1.817;-0.020;0.007;0.007;
20190926_035224;0.558;8.849;-1.961;0.002;0.003;-0.005;
20190926_035225;0.620;9.608;-1.865;-0.004;0.005;-0.001;
20190926_035225;0.649;10.080;-1.925;-0.002;0.005;0.003;
20190926_035225;0.572;9.357;-1.762;-0.007;0.008;0.001;
20190926_035225;0.644;9.134;-1.700;0.005;0.000;-0.006;
20190926_035225;0.579;9.656;-1.875;0.006;0.007;-0.001;
20190926_035225;0.642;9.665;-1.985;-0.009;0.006;0.004;
20190926_035225;0.584;9.321;-1.865;-0.003;0.007;-0.003;
20190926_035225;0.591;9.256;-1.879;0.003;0.005;-0.004;
20190926_035225;0.670;9.661;-1.733;-0.007;0.007;0.005;
20190926_035226;0.651;9.931;-1.791;0.008;0.004;-0.001;
20190926_035226;0.452;9.536;-1.695;-0.004;0.005;-0.004;
20190926_035226;0.582;9.414;-1.944;0.000;0.003;-0.000;
20190926_035226;0.570;9.313;-1.863;-0.007;0.007;0.004;
20190926_035226;0.551;9.740;-1.855;0.016;0.001;-0.009;
20190926_035226;0.424;9.651;-1.942;-0.005;0.006;0.002;
20190926_035226;0.508;9.443;-1.911;0.003;0.003;0.003;
20190926_035226;0.424;9.045;-1.805;-0.005;-0.002;0.004;
20190926_035226;0.464;9.553;-1.769;0.015;-0.007;-0.007;
20190926_035226;0.479;9.680;-2.100;-0.004;-0.007;0.003;
20190926_035227;0.584;9.591;-1.891;-0.001;-0.009;0.001;
20190926_035227;0.524;9.222;-2.037;-0.005;-0.008;0.003;
20190926_035227;0.589;9.414;-1.867;-0.008;-0.013;0.001;
20190926_035227;0.685;9.471;-1.719;-0.014;-0.007;0.010;
20190926_035227;0.697;9.438;-1.817;-0.002;-0.009;0.004;
20190926_035227;0.725;9.222;-2.006;-0.010;-0.010;0.003;
20190926_035227;0.766;9.534;-1.896;-0.002;-0.010;0.001;
20190926_035227;0.831;9.459;-2.006;-0.004;-0.007;0.005;
20190926_035227;0.773;9.323;-1.944;0.002;-0.007;-0.003;
20190926_035228;0.819;9.220;-1.865;-0.005;-0.010;-0.000;
20190926_035228;0.833;9.431;-1.621;-0.010;-0.007;0.001;
20190926_035228;0.725;10.139;-1.882;0.012;-0.008;-0.005;
20190926_035228;0.594;9.728;-1.772;-0.007;-0.004;0.001;
20190926_035228;0.613;9.292;-1.693;0.003;-0.006;0.001;
20190926_035228;0.742;9.586;-1.726;0.001;-0.004;0.001;
20190926_035228;0.721;9.888;-1.757;-0.004;-0.005;0.001;
20190926_035228;0.656;9.510;-1.769;-0.005;-0.001;0.002;
20190926_035228;0.625;9.407;-1.879;0.002;-0.005;-0.003;
20190926_035228;0.721;9.586;-1.815;-0.004;-0.001;-0.001;
20190926_035229;0.656;9.843;-1.942;0.014;-0.002;-0.004;
20190926_035229;0.709;9.570;-2.090;-0.004;0.003;0.001;
20190926_035229;0.713;9.409;-1.920;0.003;-0.002;-0.001;
20190926_035229;0.661;9.565;-1.894;0.001;0.003;0.003;
20190926_035229;0.618;9.491;-1.915;0.001;-0.002;-0.003;
20190926_035229;0.694;9.256;-1.879;-0.008;0.001;0.002;
20190926_035229;0.637;9.345;-1.750;-0.004;0.003;0.001;
20190926_035229;0.632;9.301;-1.961;0.002;0.004;0.003;
20190926_035229;0.697;9.589;-2.112;0.011;0.003;-0.005;
20190926_035230;0.658;9.697;-2.057;-0.004;0.004;0.002;
20190926_035230;0.663;9.261;-1.851;-0.013;0.007;0.006;
20190926_035230;0.517;9.230;-1.992;0.001;0.006;0.002;
20190926_035230;0.630;9.498;-1.755;-0.009;0.005;0.004;
20190926_035230;0.620;9.687;-1.791;0.002;0.004;0.001;
20190926_035230;0.584;9.316;-1.729;-0.002;0.006;0.001;
20190926_035230;0.728;9.409;-1.872;0.002;0.001;-0.004;
20190926_035230;0.654;9.720;-1.607;-0.004;0.005;-0.000;
20190926_035230;0.579;9.756;-1.788;-0.004;0.003;-0.000;
20190926_035230;0.488;9.316;-1.709;-0.004;0.005;0.002;
20190926_035231;0.539;9.266;-1.812;-0.005;0.001;0.004;
20190926_035231;0.606;9.701;-1.585;-0.008;0.001;0.005;
20190926_035231;0.520;9.881;-1.812;0.008;0.001;-0.000;
20190926_035231;0.551;9.412;-1.788;-0.003;0.000;0.001;
20190926_035231;0.654;9.390;-1.798;0.003;-0.004;-0.005;
20190926_035231;0.613;9.574;-1.587;-0.001;0.001;0.003;
20190926_035231;0.630;9.725;-1.832;0.006;-0.003;-0.000;
20190926_035231;0.476;9.519;-1.547;-0.002;-0.002;0.001;
20190926_035231;0.656;9.436;-1.724;0.008;-0.006;-0.004;
20190926_035232;0.608;9.531;-1.793;-0.001;-0.002;-0.000;
20190926_035232;0.668;9.701;-1.982;0.010;-0.006;-0.005;
20190926_035232;0.520;9.534;-1.870;-0.005;-0.001;0.002;
20190926_035232;0.728;9.412;-1.992;0.011;-0.007;-0.009;
20190926_035232;0.620;9.627;-1.743;-0.011;-0.002;0.003;
20190926_035232;0.675;9.888;-1.858;0.017;-0.004;-0.004;
20190926_035232;0.637;9.443;-1.980;-0.016;-0.001;0.006;
20190926_035232;0.721;9.287;-1.879;-0.004;-0.005;-0.001;
20190926_035232;0.575;9.550;-1.906;-0.005;0.000;0.009;
20190926_035232;0.754;9.412;-2.169;0.005;-0.005;0.002;
20190926_035233;0.795;9.163;-1.958;-0.004;-0.002;-0.000;
20190926_035233;0.814;9.462;-1.726;0.005;-0.005;-0.007;
20190926_035233;0.759;9.474;-1.975;-0.011;0.000;0.004;
20190926_035233;0.828;9.749;-1.827;-0.001;-0.004;-0.003;
20190926_035233;0.709;9.433;-1.774;-0.008;0.001;0.003;
20190926_035233;0.464;9.167;-1.666;-0.005;0.003;0.001;
20190926_035233;0.601;9.199;-1.726;-0.001;-0.002;0.005;
20190926_035233;0.742;9.594;-1.556;0.008;-0.003;0.002;
20190926_035233;0.579;9.742;-1.908;-0.002;-0.001;-0.004;
20190926_035234;0.634;9.285;-1.551;-0.007;-0.002;0.001;
20190926_035234;0.678;9.105;-1.784;0.009;-0.002;0.001;
20190926_035234;0.733;9.436;-1.769;0.005;-0.004;-0.006;
20190926_035234;0.627;10.029;-1.865;0.009;0.000;-0.001;
20190926_035234;0.582;9.689;-1.736;-0.008;0.004;0.008;
20190926_035234;0.694;9.072;-1.731;-0.005;0.001;0.005;
20190926_035234;0.649;9.369;-1.788;0.000;0.000;-0.004;
20190926_035234;0.666;9.658;-1.858;0.000;0.000;0.001;
20190926_035234;0.728;9.294;-1.757;-0.011;0.001;0.004;
20190926_035234;0.709;9.232;-1.793;0.016;-0.003;-0.008;
20190926_035235;0.567;9.752;-1.903;-0.008;0.004;-0.003;
20190926_035235;0.668;9.823;-1.906;0.007;-0.001;0.002;
20190926_035235;0.582;9.467;-1.733;-0.008;0.000;-0.001;
20190926_035235;0.596;9.459;-1.949;0.006;-0.001;-0.009;
20190926_035235;0.570;9.629;-1.796;-0.006;0.005;0.004;
20190926_035235;0.692;9.881;-2.030;0.003;0.001;0.002;
20190926_035235;0.472;9.491;-1.595;-0.010;0.006;0.001;
20190926_035235;0.567;9.369;-1.793;0.008;-0.001;-0.005;
20190926_035235;0.615;9.392;-1.556;0.002;0.006;0.006;
20190926_035236;0.742;9.778;-1.927;0.006;0.000;-0.004;
20190926_035236;0.601;9.723;-1.707;-0.002;0.003;-0.007;
20190926_035236;0.452;9.345;-1.822;0.009;0.004;0.001;
20190926_035236;0.563;9.158;-1.741;-0.009;0.006;0.004;
20190926_035236;0.713;9.704;-1.791;0.009;0.001;-0.006;
20190926_035236;0.474;9.665;-1.798;-0.005;0.005;-0.000;
20190926_035236;0.524;9.543;-1.846;0.003;-0.001;0.004;
20190926_035236;0.594;9.491;-1.674;-0.002;0.004;0.001;
20190926_035236;0.529;9.558;-1.982;0.002;0.003;-0.003;
20190926_035237;0.560;9.263;-1.583;-0.021;0.003;0.004;
20190926_035237;0.694;9.586;-1.714;0.018;0.000;-0.001;
20190926_035237;0.532;9.780;-1.788;0.001;0.000;-0.004;
20190926_035237;0.620;9.711;-1.827;0.011;0.000;-0.001;
20190926_035237;0.455;9.242;-1.638;-0.009;0.000;-0.001;
20190926_035237;0.663;9.574;-1.729;0.003;-0.004;-0.003;
20190926_035237;0.505;9.821;-1.810;-0.004;-0.001;-0.003;
20190926_035237;0.634;9.922;-1.786;0.000;-0.002;0.004;
20190926_035237;0.474;9.555;-1.697;-0.003;0.000;0.001;
20190926_035238;0.608;9.316;-1.633;0.002;-0.006;-0.004;
20190926_035238;0.563;9.414;-1.635;-0.006;-0.001;0.002;
20190926_035238;0.795;9.797;-1.781;0.013;-0.004;-0.005;
20190926_035238;0.529;9.888;-1.683;-0.004;-0.001;-0.006;
20190926_035238;0.740;9.708;-1.932;0.007;-0.005;-0.004;
20190926_035238;0.606;9.625;-1.848;-0.004;-0.003;-0.001;
20190926_035238;0.618;9.536;-1.951;0.001;-0.004;-0.000;
20190926_035238;0.611;9.543;-1.779;-0.003;-0.001;-0.000;
20190926_035238;0.637;9.661;-1.760;0.010;-0.005;-0.003;
20190926_035238;0.575;9.653;-1.678;0.000;-0.002;0.002;
20190926_035239;0.663;9.859;-1.958;0.012;-0.004;-0.005;
20190926_035239;0.608;9.246;-2.054;-0.009;0.000;0.001;
20190926_035239;0.809;9.311;-1.906;-0.001;-0.004;-0.003;
20190926_035239;0.553;9.543;-1.841;0.002;-0.002;0.001;
20190926_035239;0.757;9.500;-2.076;0.001;-0.007;-0.001;
20190926_035239;0.670;9.625;-1.968;-0.006;-0.002;-0.003;
20190926_035239;0.804;9.318;-2.207;-0.007;-0.005;-0.004;
20190926_035239;0.594;9.613;-1.796;-0.005;-0.002;-0.001;
20190926_035239;0.618;9.764;-2.097;0.006;-0.004;-0.005;
20190926_035239;0.615;9.562;-1.870;-0.014;-0.002;0.002;
20190926_035240;0.613;9.471;-1.932;0.007;-0.005;0.001;
20190926_035240;0.575;9.404;-1.721;-0.008;-0.002;0.005;
20190926_035240;0.632;9.632;-1.827;0.001;-0.008;-0.003;
20190926_035240;0.532;9.507;-1.930;-0.008;-0.001;0.003;
20190926_035240;0.702;9.562;-1.982;0.007;-0.008;0.001;
20190926_035240;0.608;9.560;-1.872;-0.005;-0.004;0.003;
20190926_035240;0.690;9.740;-1.944;0.011;-0.006;-0.003;
20190926_035240;0.505;9.704;-1.815;-0.004;0.000;0.003;
20190926_035240;0.656;9.426;-1.839;0.003;-0.004;0.005;
20190926_035241;0.644;9.503;-1.762;-0.003;-0.003;0.001;
20190926_035241;0.757;9.694;-1.851;0.014;-0.006;-0.008;
20190926_035241;0.541;9.383;-1.884;-0.002;-0.001;-0.000;
20190926_035241;0.776;9.380;-1.901;0.002;-0.006;-0.000;
20190926_035241;0.656;9.663;-1.697;-0.002;-0.003;0.001;
20190926_035241;0.634;9.917;-1.884;0.003;-0.005;0.001;
20190926_035241;0.534;9.426;-1.599;-0.006;-0.002;0.002;
20190926_035241;0.702;9.543;-2.004;0.007;-0.007;-0.000;
20190926_035241;0.572;9.761;-1.748;-0.014;-0.003;-0.001;
20190926_035242;0.790;9.522;-2.234;0.015;-0.004;-0.003;
20190926_035242;0.646;9.103;-1.803;-0.013;0.003;0.004;
20190926_035242;0.599;9.354;-1.750;0.013;-0.004;-0.004;
20190926_035242;0.572;9.486;-1.800;-0.009;-0.001;0.007;
20190926_035242;0.821;9.821;-2.033;0.011;-0.004;-0.005;
20190926_035242;0.599;9.517;-1.923;-0.011;0.004;0.003;
20190926_035242;0.687;9.131;-1.882;0.008;-0.004;-0.004;
20190926_035242;0.685;9.704;-1.901;-0.001;-0.002;-0.005;
20190926_035242;0.862;9.761;-2.126;0.006;0.001;-0.005;
20190926_035242;0.584;9.675;-2.033;-0.013;0.001;-0.003;
20190926_035243;0.690;9.222;-1.777;-0.007;0.001;0.004;
20190926_035243;0.515;9.527;-1.654;-0.001;0.003;-0.001;
20190926_035243;0.613;9.950;-1.894;0.000;0.001;0.003;
20190926_035243;0.505;9.335;-1.650;-0.013;0.005;0.004;
20190926_035243;0.584;9.026;-1.712;0.013;-0.002;-0.006;
20190926_035243;0.608;9.730;-1.709;-0.001;0.003;-0.003;
20190926_035243;0.661;9.790;-2.002;0.005;0.000;-0.001;
20190926_035243;0.388;9.263;-1.839;-0.016;0.004;0.003;
20190926_035243;0.546;9.141;-1.638;0.000;-0.003;0.002;
20190926_035244;0.467;10.068;-1.867;0.001;0.000;0.001;
20190926_035244;0.725;10.147;-2.035;0.006;0.001;0.003;
20190926_035244;0.584;9.369;-1.741;-0.025;0.001;0.007;
20190926_035244;0.795;8.672;-1.865;-0.008;0.003;-0.001;
20190926_035244;0.730;8.588;-1.719;-0.021;0.001;0.001;
20190926_035244;0.663;10.005;-1.903;0.024;-0.002;-0.013;
20190926_035244;0.716;10.204;-1.822;-0.009;0.010;0.003;
20190926_035244;0.613;9.651;-1.760;0.007;-0.001;-0.009;
20190926_035244;0.441;9.237;-1.872;0.002;0.004;0.004;
20190926_035244;0.579;9.187;-1.709;-0.001;-0.001;0.006;
20190926_035245;0.493;9.768;-1.891;0.006;-0.001;-0.005;
20190926_035245;0.575;10.099;-1.870;-0.006;-0.001;0.003;
20190926_035245;0.570;9.644;-1.817;-0.005;0.003;0.002;
20190926_035245;0.783;9.323;-2.009;-0.003;-0.001;-0.003;
20190926_035245;0.536;9.239;-1.851;-0.009;0.004;-0.003;
20190926_035245;0.678;9.256;-1.899;0.006;0.000;0.001;
20190926_035245;0.634;9.550;-1.741;-0.007;0.005;0.007;
20190926_035245;0.587;9.797;-1.930;0.006;-0.001;-0.001;
20190926_035245;0.517;9.639;-1.872;-0.008;0.004;0.005;
20190926_035246;0.713;9.158;-1.935;0.009;0.000;0.004;
20190926_035246;0.577;9.194;-1.695;-0.003;0.004;-0.001;
20190926_035246;0.718;9.828;-1.836;0.003;0.004;-0.005;
20190926_035246;0.522;9.890;-1.985;-0.003;0.004;-0.004;
20190926_035246;0.802;9.728;-1.817;0.000;0.003;0.002;
20190926_035246;0.603;9.064;-1.891;-0.004;0.005;-0.001;
20190926_035246;0.687;9.249;-1.824;0.003;0.001;0.001;
20190926_035246;0.522;9.292;-1.743;-0.005;0.006;0.003;
20190926_035246;0.709;9.589;-1.970;0.002;-0.001;-0.001;
20190926_035246;0.656;9.898;-1.851;-0.007;0.003;-0.000;
20190926_035247;0.668;9.409;-1.932;-0.001;0.005;0.003;
20190926_035247;0.611;8.880;-1.808;-0.013;0.005;0.003;
20190926_035247;0.630;9.153;-1.719;0.016;0.004;-0.003;
20190926_035247;0.615;9.991;-1.832;0.002;0.000;-0.003;
20190926_035247;0.776;9.706;-1.994;0.001;0.005;0.002;
20190926_035247;0.579;9.136;-1.836;-0.003;0.006;-0.004;
20190926_035247;0.599;8.894;-1.731;-0.004;0.001;0.001;
20190926_035247;0.651;9.589;-1.848;0.008;0.003;-0.006;
20190926_035247;0.570;9.759;-1.855;0.003;0.007;0.001;
20190926_035248;0.484;9.653;-1.793;0.002;0.003;-0.000;
20190926_035248;0.637;9.495;-1.788;-0.007;0.003;0.005;
20190926_035248;0.642;9.488;-1.858;0.000;0.003;-0.000;
20190926_035248;0.505;9.412;-1.729;0.003;0.001;-0.004;
20190926_035248;0.644;9.553;-1.800;0.005;0.001;0.001;
20190926_035248;0.687;9.742;-2.045;0.008;0.000;-0.005;
20190926_035248;0.493;9.914;-1.800;-0.010;-0.003;-0.006;
20190926_035248;0.613;9.689;-1.956;0.002;-0.001;-0.000;
20190926_035248;0.625;9.033;-1.657;-0.011;0.000;-0.000;
20190926_035248;0.723;9.728;-1.968;0.010;-0.004;-0.006;
20190926_035249;0.622;9.936;-1.875;-0.001;0.000;0.001;
20190926_035249;0.567;9.620;-1.915;-0.007;-0.003;0.001;
20190926_035249;0.682;9.290;-1.695;-0.018;-0.001;0.005;
20190926_035249;0.575;9.246;-1.853;-0.006;-0.002;0.002;
20190926_035249;0.587;9.471;-1.621;-0.013;-0.005;0.001;
20190926_035249;0.745;9.031;-1.848;-0.003;-0.002;0.004;
20190926_035249;0.615;8.928;-1.707;0.000;-0.004;-0.004;
20190926_035249;0.740;9.491;-1.899;0.008;-0.003;0.003;
20190926_035249;0.713;9.977;-1.676;0.009;-0.004;-0.000;
20190926_035250;0.697;9.579;-1.956;0.008;-0.002;0.005;
20190926_035250;0.690;8.976;-1.707;-0.001;-0.007;-0.004;
20190926_035250;0.702;9.287;-1.879;0.011;-0.007;-0.008;
20190926_035250;0.867;9.936;-1.724;0.007;-0.005;-0.015;
20190926_035250;0.543;9.297;-1.769;-0.009;-0.002;-0.009;
20190926_035250;0.515;9.242;-1.741;0.012;-0.007;-0.001;
20190926_035250;0.646;9.390;-1.669;0.010;-0.005;0.010;
20190926_035250;0.500;10.173;-1.867;0.015;-0.005;0.005;
20190926_035250;0.517;9.728;-2.059;-0.005;0.001;0.024;
20190926_035251;0.618;9.505;-2.006;0.012;-0.007;0.007;
20190926_035251;0.898;9.534;-2.009;0.000;-0.005;0.003;
20190926_035251;0.876;9.768;-1.889;-0.010;-0.004;-0.003;
20190926_035251;0.788;9.613;-2.054;-0.002;-0.006;-0.005;
20190926_035251;0.826;9.412;-1.796;-0.019;-0.002;0.002;
20190926_035251;0.706;9.471;-1.946;0.007;-0.004;-0.004;
20190926_035251;0.611;9.366;-1.714;-0.016;0.000;0.008;
20190926_035251;0.486;9.321;-1.714;-0.005;-0.003;0.005;
20190926_035251;0.639;9.424;-1.903;0.006;-0.002;0.004;
20190926_035251;0.706;9.201;-1.777;-0.006;-0.003;0.003;
20190926_035252;0.773;9.404;-1.982;0.007;-0.004;-0.006;
20190926_035252;0.795;9.641;-1.992;-0.004;-0.004;-0.004;
20190926_035252;0.927;9.867;-1.894;-0.003;-0.003;-0.005;
20190926_035252;0.680;9.689;-1.932;-0.004;0.001;-0.000;
20190926_035252;0.704;9.225;-1.999;-0.001;0.003;0.003;
20190926_035252;0.534;9.158;-1.793;-0.006;0.001;-0.003;
20190926_035252;0.781;9.811;-2.002;0.003;-0.001;0.002;
20190926_035252;0.630;9.663;-1.923;-0.001;0.001;-0.000;
20190926_035252;0.713;9.424;-1.954;0.010;-0.002;-0.003;
20190926_035252;0.824;8.990;-1.848;-0.022;-0.003;-0.001;
20190926_035253;0.520;9.661;-1.951;0.010;-0.001;-0.007;
20190926_035253;0.809;10.008;-1.997;0.008;0.001;-0.004;
20190926_035253;0.678;9.591;-1.815;-0.005;0.005;-0.000;
20190926_035253;0.627;9.333;-1.824;-0.004;0.001;-0.004;
20190926_035253;0.505;9.481;-1.769;-0.007;0.004;0.005;
20190926_035253;0.570;9.967;-1.810;0.009;0.000;-0.001;
20190926_035253;0.661;9.491;-1.662;-0.010;0.004;0.005;
20190926_035253;0.541;9.151;-1.681;-0.001;-0.002;-0.003;
20190926_035253;0.634;9.110;-1.719;0.001;0.000;0.007;
20190926_035254;0.702;9.704;-1.777;0.013;-0.003;-0.009;
20190926_035254;0.661;9.852;-1.815;-0.002;0.000;-0.001;
20190926_035254;0.711;9.476;-1.724;0.001;-0.001;0.002;
20190926_035254;0.603;9.313;-1.800;-0.002;0.000;-0.000;
20190926_035254;0.733;9.732;-1.903;0.002;-0.005;-0.000;
20190926_035254;0.515;9.694;-1.791;-0.011;0.003;0.002;
20190926_035254;0.618;9.031;-1.899;0.002;-0.001;0.008;
20190926_035254;0.534;9.136;-1.748;0.001;-0.003;-0.003;
20190926_035254;0.860;9.821;-2.035;0.007;-0.001;0.001;
20190926_035254;0.642;9.819;-1.920;-0.013;0.003;-0.003;
20190926_035255;0.713;9.608;-1.846;-0.006;-0.002;-0.003;
20190926_035255;0.634;9.290;-1.788;-0.011;0.000;-0.000;
20190926_035255;0.622;9.388;-1.970;0.006;-0.003;-0.005;
20190926_035255;0.606;9.804;-1.867;-0.003;-0.002;-0.001;
20190926_035255;0.658;9.708;-1.913;-0.006;-0.003;0.004;
20190926_035255;0.642;9.160;-1.654;-0.007;0.001;0.005;
20190926_035255;0.735;9.115;-2.119;-0.002;-0.021;0.004;
20190926_035255;0.551;9.294;-1.820;-0.004;-0.003;-0.005;
20190926_035255;0.666;9.404;-1.889;0.000;-0.003;0.002;
20190926_035256;0.733;8.985;-1.875;-0.009;-0.001;-0.003;
20190926_035256;0.613;9.565;-1.858;0.000;0.004;0.003;
20190926_035256;0.855;9.359;-1.832;-0.013;0.001;0.007;
20190926_035256;0.800;9.512;-1.611;0.012;-0.014;-0.000;
20190926_035256;0.340;10.017;-1.166;-0.002;0.005;-0.004;
20190926_035256;0.606;9.213;-2.095;0.007;-0.008;-0.001;
20190926_035256;0.620;9.527;-1.992;0.000;-0.004;-0.005;
20190926_035256;0.754;9.862;-2.102;0.002;-0.005;0.001;
20190926_035256;0.757;9.491;-1.736;-0.013;0.003;0.006;
20190926_035256;0.862;9.634;-1.879;0.013;-0.005;-0.006;
20190926_035257;0.543;9.234;-1.844;-0.009;-0.003;0.006;
20190926_035257;0.883;9.392;-1.867;0.005;-0.002;0.006;
20190926_035257;0.663;9.900;-1.930;0.000;-0.002;0.002;
20190926_035257;0.690;9.459;-1.611;0.001;-0.001;-0.005;
20190926_035257;0.668;9.153;-1.674;-0.009;-0.003;0.004;
20190926_035257;0.608;9.342;-2.126;-0.011;0.005;0.002;
20190926_035257;0.759;9.574;-2.203;-0.003;-0.001;-0.007;
20190926_035257;0.656;9.680;-1.796;-0.005;-0.001;-0.007;
20190926_035257;0.735;9.404;-1.877;-0.008;-0.001;0.001;
20190926_035257;0.654;9.380;-1.599;-0.002;-0.001;0.002;
20190926_035258;0.670;9.665;-1.791;0.007;-0.001;-0.003;
20190926_035258;0.577;9.634;-1.762;0.000;0.000;0.001;
20190926_035258;0.713;9.222;-1.786;-0.002;0.000;0.005;
20190926_035258;0.663;9.603;-1.803;-0.003;-0.001;0.002;
20190926_035258;0.747;9.780;-2.064;-0.005;0.000;0.001;
20190926_035258;0.654;9.213;-1.913;-0.010;0.003;-0.001;
20190926_035258;0.778;9.249;-1.882;-0.002;0.000;-0.000;
20190926_035258;0.618;9.534;-1.750;0.000;0.004;-0.003;
20190926_035258;0.690;9.479;-2.006;0.001;0.001;0.001;
20190926_035259;0.505;9.527;-1.846;-0.002;-0.001;-0.001;
20190926_035259;0.608;9.491;-1.839;-0.005;-0.001;0.002;
20190926_035259;0.661;9.615;-1.719;0.006;0.001;-0.003;
20190926_035259;0.639;9.656;-1.846;-0.003;0.001;0.001;
20190926_035259;0.661;9.256;-1.872;-0.004;0.003;0.005;
20190926_035259;0.692;9.402;-1.846;-0.004;-0.001;-0.004;
20190926_035259;0.702;9.685;-1.745;-0.002;0.000;0.003;
20190926_035259;0.599;9.311;-1.664;-0.010;0.003;0.001;
20190926_035259;0.599;9.218;-1.980;-0.003;0.001;-0.000;
20190926_035300;0.709;9.577;-1.946;0.000;0.003;-0.001;
20190926_035300;0.694;9.764;-1.832;-0.001;0.004;0.002;
20190926_035300;0.627;9.278;-2.069;-0.015;0.005;0.001;
20190926_035300;0.584;9.591;-1.760;0.008;0.004;-0.005;
20190926_035300;0.570;9.790;-1.506;0.008;0.007;-0.003;
20190926_035300;0.656;9.615;-1.918;-0.002;0.001;-0.000;
20190926_035300;0.577;9.685;-1.824;0.000;0.004;-0.003;
20190926_035300;0.651;9.373;-1.793;-0.009;0.001;0.002;
20190926_035300;0.560;9.498;-1.721;-0.001;0.004;-0.003;
20190926_035300;0.637;9.613;-1.645;-0.002;0.001;0.002;
20190926_035301;0.615;9.608;-1.683;0.002;0.004;-0.005;
20190926_035301;0.661;9.838;-1.832;0.008;0.004;-0.003;
20190926_035301;0.591;9.694;-1.992;0.008;0.007;-0.001;
20190926_035301;0.646;9.462;-1.879;0.007;0.007;-0.003;
20190926_035301;0.752;9.510;-1.994;0.006;0.001;-0.006;
20190926_035301;0.639;9.510;-1.784;-0.004;0.003;-0.001;
20190926_035301;0.646;9.555;-1.709;0.003;0.006;-0.000;
20190926_035301;0.536;9.105;-1.824;-0.008;0.006;-0.000;
20190926_035301;0.658;9.445;-1.978;0.010;0.000;-0.001;
20190926_035302;0.594;9.713;-1.846;0.001;0.003;0.003;
20190926_035302;0.675;9.503;-2.011;0.001;0.005;0.004;
20190926_035302;0.546;9.335;-1.999;-0.008;0.005;0.001;
20190926_035302;0.524;9.388;-1.951;-0.001;0.006;0.001;
20190926_035302;0.596;9.498;-1.841;-0.001;0.006;0.003;
20190926_035302;0.704;9.498;-2.009;-0.008;0.001;-0.004;
20190926_035302;0.543;9.431;-1.695;-0.005;0.003;-0.006;
20190926_035302;0.594;9.251;-1.700;-0.001;0.001;0.003;
20190926_035302;0.735;9.766;-1.824;0.011;0.003;-0.001;
20190926_035302;0.594;9.740;-1.803;0.002;0.001;-0.001;
20190926_035303;0.524;9.713;-1.777;0.001;0.001;-0.003;
20190926_035303;0.666;9.105;-1.805;0.003;0.006;0.008;
20190926_035303;0.577;9.333;-1.674;0.001;0.001;-0.004;
20190926_035303;0.601;9.634;-1.815;0.002;0.000;-0.004;
20190926_035303;0.582;9.419;-1.748;-0.001;-0.002;0.001;
20190926_035303;0.589;9.177;-1.875;0.000;-0.002;0.001;
20190926_035303;0.618;9.524;-1.927;0.006;-0.002;-0.003;
20190926_035303;0.565;9.929;-2.023;0.002;-0.003;-0.006;
20190926_035303;0.589;9.685;-2.011;-0.008;-0.004;0.006;
20190926_035304;0.539;9.553;-1.645;-0.004;-0.005;-0.000;
20190926_035304;0.663;9.407;-1.882;0.001;-0.004;0.001;
20190926_035304;0.567;9.512;-1.664;-0.006;-0.007;-0.003;
20190926_035304;0.577;9.689;-1.889;0.003;-0.005;0.006;
20190926_035304;0.757;9.440;-1.729;-0.004;-0.002;0.003;
20190926_035304;0.589;9.354;-1.815;0.001;-0.006;-0.001;
20190926_035304;0.723;9.306;-1.784;-0.005;-0.005;0.007;
20190926_035304;0.704;9.560;-1.870;-0.002;-0.005;0.002;
20190926_035304;0.800;9.874;-1.853;-0.001;-0.006;-0.001;
20190926_035304;0.668;9.483;-1.762;-0.007;-0.002;0.002;
20190926_035305;0.654;9.187;-1.738;-0.005;-0.007;0.003;
20190926_035305;0.728;9.285;-1.870;0.001;-0.006;-0.001;
20190926_035305;0.759;9.680;-1.860;0.002;-0.006;-0.004;
20190926_035305;0.776;9.764;-1.997;0.003;-0.004;-0.000;
20190926_035305;0.682;9.366;-1.894;-0.004;-0.004;0.004;
20190926_035305;0.737;9.620;-1.863;-0.003;-0.005;-0.000;
20190926_035305;0.749;9.527;-1.894;0.001;-0.005;-0.000;
20190926_035305;0.634;9.361;-1.700;-0.004;-0.003;-0.003;
20190926_035305;0.778;9.333;-1.865;-0.003;-0.004;0.003;
20190926_035305;0.735;9.720;-1.848;0.008;-0.002;-0.005;
20190926_035306;0.680;9.656;-1.867;0.007;-0.003;0.001;
20190926_035306;0.654;9.481;-1.779;0.007;-0.001;0.002;
20190926_035306;0.757;9.352;-1.812;0.003;-0.001;0.002;
20190926_035306;0.668;9.572;-1.731;0.012;0.001;-0.004;
20190926_035306;0.737;9.524;-1.832;0.012;0.000;-0.000;
20190926_035306;0.888;9.225;-2.078;0.013;-0.001;-0.005;
20190926_035306;0.711;9.371;-1.975;0.002;0.000;-0.006;
20190926_035306;0.692;9.527;-1.815;0.002;0.000;0.001;
20190926_035306;0.627;9.290;-1.867;-0.005;0.001;-0.001;
20190926_035307;0.505;9.448;-1.841;-0.003;0.000;-0.000;
20190926_035307;0.627;9.687;-1.841;-0.006;0.000;0.003;
20190926_035307;0.622;9.412;-1.985;0.002;0.004;0.002;
20190926_035307;0.570;9.445;-1.824;-0.007;0.000;-0.003;
20190926_035307;0.622;9.613;-1.994;0.000;0.001;-0.001;
20190926_035307;0.651;9.651;-1.712;0.000;-0.002;-0.004;
20190926_035307;0.697;9.641;-1.848;-0.006;0.001;0.002;
20190926_035307;0.644;9.577;-1.669;-0.001;0.003;-0.004;
20190926_035307;0.503;9.299;-1.748;-0.005;0.007;0.002;
20190926_035307;0.563;9.603;-1.769;0.006;-0.001;0.001;
20190926_035308;0.599;9.558;-1.777;-0.006;0.003;0.004;
20190926_035308;0.620;9.292;-1.702;-0.005;-0.001;0.001;
20190926_035308;0.608;9.524;-1.688;0.009;-0.001;-0.001;
20190926_035308;0.599;9.639;-1.966;-0.002;0.001;0.004;
20190926_035308;0.711;9.570;-2.073;0.005;0.000;-0.004;
20190926_035308;0.632;9.407;-1.796;-0.013;-0.001;0.001;
20190926_035308;0.608;9.610;-1.793;0.006;0.000;-0.003;
20190926_035308;0.567;9.428;-1.779;-0.007;0.000;0.008;
20190926_035308;0.642;9.467;-1.793;0.008;-0.002;-0.005;
20190926_035309;0.725;9.388;-1.832;-0.006;0.000;0.003;
20190926_035309;0.565;9.675;-1.779;0.003;-0.003;-0.000;
20190926_035309;0.749;9.495;-1.652;-0.006;0.005;0.006;
20190926_035309;0.699;9.412;-1.942;-0.004;-0.002;-0.004;
20190926_035309;0.769;9.625;-2.095;0.003;-0.001;-0.000;
20190926_035309;0.680;9.562;-1.827;-0.010;-0.001;0.002;
20190926_035309;0.680;9.234;-1.872;-0.010;0.000;-0.003;
20190926_035309;0.553;9.306;-1.683;-0.015;-0.003;-0.000;
20190926_035309;0.639;9.531;-1.781;-0.001;-0.001;-0.000;
20190926_035309;0.637;9.184;-1.805;0.001;0.000;0.003;
20190926_035310;0.625;9.361;-1.848;0.005;-0.001;-0.004;
20190926_035310;0.658;9.433;-2.030;0.011;-0.001;-0.001;
20190926_035310;0.611;9.448;-1.920;-0.005;-0.002;-0.000;
20190926_035310;0.546;9.383;-1.674;0.005;-0.001;0.002;
20190926_035310;0.797;9.649;-1.966;0.025;-0.004;-0.009;
20190926_035310;0.563;9.718;-2.131;0.007;0.003;-0.003;
20190926_035310;0.754;9.878;-1.973;-0.013;0.001;0.002;
20190926_035310;0.601;9.835;-1.982;-0.013;0.004;-0.000;
20190926_035310;0.479;9.567;-1.702;-0.017;0.003;0.004;
20190926_035311;0.646;8.914;-1.935;-0.014;0.003;0.010;
20190926_035311;0.481;9.160;-1.791;-0.009;-0.001;0.006;
20190926_035311;0.670;9.946;-2.078;-0.001;-0.005;-0.000;
20190926_035311;0.601;9.668;-1.987;-0.010;0.003;0.009;
20190926_035311;0.622;9.661;-1.899;-0.001;-0.003;-0.001;
20190926_035311;0.836;9.615;-1.987;-0.011;-0.004;-0.000;
20190926_035311;0.785;10.635;-1.832;-0.005;0.003;-0.009;
20190926_035311;0.713;9.304;-1.494;-0.014;0.004;0.004;
20190926_035311;0.692;8.485;-1.578;-0.029;0.001;0.001;
20190926_035311;0.405;8.406;-1.693;-0.020;-0.003;-0.005;
20190926_035312;0.685;9.869;-1.810;0.014;-0.004;-0.009;
20190926_035312;0.845;8.873;-1.853;-0.015;0.003;0.003;
20190926_035312;0.948;8.145;-1.535;-0.004;0.005;0.001;
20190926_035312;0.405;9.572;-1.820;0.035;-0.006;-0.023;
20190926_035312;0.656;10.678;-2.081;0.027;-0.002;0.004;
20190926_035312;0.713;10.434;-1.899;-0.017;0.001;0.004;
20190926_035312;0.381;8.578;-1.829;-0.027;-0.005;0.006;
20190926_035312;0.457;8.698;-1.621;-0.015;0.005;0.002;
20190926_035312;0.699;9.792;-2.009;0.028;0.005;0.001;
20190926_035313;0.673;10.075;-1.982;-0.011;0.005;0.005;
20190926_035313;0.457;9.301;-1.829;-0.011;0.001;-0.003;
20190926_035313;0.350;8.540;-1.654;-0.005;0.005;0.007;
20190926_035313;0.843;9.316;-1.743;0.024;0.008;0.005;
20190926_035313;0.620;10.439;-1.939;0.027;0.000;-0.006;
20190926_035313;0.725;9.754;-1.796;-0.014;0.007;0.010;
20190926_035313;0.596;9.074;-1.817;0.000;0.000;0.001;
20190926_035313;0.802;9.495;-1.956;0.001;0.003;-0.000;
20190926_035313;0.721;10.051;-1.942;-0.002;0.000;-0.011;
20190926_035314;0.611;9.249;-1.741;-0.025;0.006;0.007;
20190926_035314;0.625;8.619;-1.812;-0.011;0.006;0.008;
20190926_035314;0.555;9.005;-1.899;0.010;-0.002;-0.004;
20190926_035314;0.613;10.051;-1.935;0.010;0.005;-0.004;
20190926_035314;0.587;10.192;-1.891;0.002;0.003;0.001;
20190926_035314;0.448;9.342;-1.712;-0.009;0.001;0.005;
20190926_035314;0.457;9.129;-1.717;0.001;-0.005;-0.004;
20190926_035314;0.486;9.649;-1.786;0.013;-0.009;-0.008;
20190926_035314;0.740;10.084;-1.839;0.006;-0.004;0.002;
20190926_035314;0.680;9.613;-1.805;-0.009;-0.004;-0.000;
20190926_035315;0.555;8.473;-1.832;-0.018;-0.017;0.004;
20190926_035315;0.680;8.950;-1.798;0.011;-0.010;-0.000;
20190926_035315;0.661;10.302;-1.827;0.017;-0.006;0.005;
20190926_035315;0.742;10.151;-1.923;0.005;-0.006;0.007;
20190926_035315;0.670;9.591;-2.011;-0.005;-0.007;0.002;
20190926_035315;0.675;8.835;-1.791;-0.013;-0.007;0.011;
20190926_035315;0.867;9.620;-1.894;0.012;-0.008;-0.005;
20190926_035315;0.716;10.084;-1.901;-0.004;-0.007;-0.003;
20190926_035315;0.749;9.744;-1.736;-0.009;-0.005;-0.000;
20190926_035316;0.826;8.938;-1.846;-0.006;-0.010;0.006;
20190926_035316;0.771;8.962;-1.769;0.000;-0.005;0.001;
20190926_035316;0.764;9.653;-1.820;0.013;-0.004;-0.003;
20190926_035316;0.795;9.670;-1.937;0.000;-0.004;0.004;
20190926_035316;0.804;9.357;-1.841;-0.007;-0.007;-0.000;
20190926_035316;0.666;9.361;-1.889;0.001;-0.001;-0.003;
20190926_035316;0.754;9.675;-1.899;0.009;-0.001;-0.003;
20190926_035316;0.690;9.531;-1.867;0.002;0.003;0.001;
20190926_035316;0.843;9.515;-2.114;0.002;-0.004;-0.005;
20190926_035317;0.646;9.577;-1.762;-0.003;-0.001;-0.004;
20190926_035317;0.699;9.816;-1.889;0.012;-0.002;-0.001;
20190926_035317;0.646;9.831;-1.832;-0.004;0.003;-0.001;
20190926_035317;0.515;9.412;-1.867;-0.007;0.001;-0.000;
20190926_035317;0.620;9.139;-1.697;-0.005;0.001;-0.000;
20190926_035317;0.658;9.321;-1.475;0.014;0.005;-0.003;
20190926_035317;0.702;9.989;-1.724;0.006;0.000;-0.006;
20190926_035317;0.618;9.613;-1.812;-0.009;0.001;-0.000;
20190926_035317;0.560;9.230;-1.894;-0.002;0.000;0.001;
20190926_035317;0.608;9.421;-1.767;0.000;0.005;0.001;
20190926_035318;0.630;9.826;-1.836;0.007;0.004;0.001;
20190926_035318;0.587;9.764;-1.860;0.003;0.005;0.003;
20190926_035318;0.546;9.402;-1.846;0.003;0.004;0.001;
20190926_035318;0.622;9.112;-1.848;-0.005;0.003;0.001;
20190926_035318;0.644;9.522;-1.927;0.001;0.003;-0.006;
20190926_035318;0.713;9.555;-1.894;0.006;0.003;-0.003;
20190926_035318;0.745;9.572;-1.784;-0.002;0.004;0.002;
20190926_035318;0.666;9.704;-1.767;0.012;0.005;-0.003;
20190926_035318;0.517;9.225;-1.784;-0.002;0.004;0.003;
20190926_035319;0.584;9.615;-1.930;0.006;0.003;-0.000;
20190926_035319;0.565;9.649;-1.779;-0.011;0.004;0.002;
20190926_035319;0.599;9.385;-1.927;-0.002;0.003;-0.000;
20190926_035319;0.582;9.357;-1.999;-0.009;0.006;-0.003;
20190926_035319;0.721;9.352;-2.179;0.006;0.004;-0.001;
20190926_035319;0.711;9.625;-1.944;-0.005;0.003;-0.003;
20190926_035319;0.450;9.491;-1.757;-0.008;0.004;0.004;
20190926_035319;0.594;9.543;-1.870;0.003;0.006;0.003;
20190926_035319;0.622;9.402;-1.860;0.001;0.006;0.003;
20190926_035319;0.639;9.534;-1.942;0.006;0.001;-0.001;
20190926_035320;0.603;9.553;-1.671;-0.002;0.004;0.001;
20190926_035320;0.627;9.419;-1.858;0.007;0.005;-0.003;
20190926_035320;0.618;9.402;-1.755;0.000;0.005;-0.003;
20190926_035320;0.608;9.553;-1.781;0.008;0.003;-0.006;
20190926_035320;0.630;9.414;-1.812;-0.003;0.005;0.003;
20190926_035320;0.579;9.421;-1.985;0.003;0.004;0.001;
20190926_035320;0.713;9.622;-1.844;-0.003;0.001;0.003;
20190926_035320;0.474;9.448;-1.791;-0.004;0.006;-0.001;
20190926_035320;0.584;9.519;-1.982;0.003;0.001;-0.004;
20190926_035321;0.613;9.651;-1.767;-0.002;0.003;-0.001;
20190926_035321;0.551;9.500;-1.918;-0.001;0.003;-0.004;
20190926_035321;0.579;9.493;-1.707;-0.004;0.003;-0.001;
20190926_035321;0.639;9.737;-1.911;0.005;0.005;0.001;
20190926_035321;0.594;9.677;-1.731;0.003;0.003;-0.000;
20190926_035321;0.469;9.507;-2.030;-0.003;0.004;-0.000;
20190926_035321;0.532;9.428;-1.829;-0.002;0.001;0.001;
20190926_035321;0.510;9.462;-1.765;0.001;0.001;-0.001;
20190926_035321;0.582;9.574;-1.793;-0.001;0.003;-0.003;
20190926_035321;0.532;9.426;-1.793;0.000;0.001;-0.000;
20190926_035322;0.599;9.488;-1.817;0.005;-0.002;-0.000;
20190926_035322;0.570;9.462;-1.817;0.003;-0.001;0.002;
20190926_035322;0.582;9.558;-1.841;0.005;-0.006;-0.003;
20190926_035322;0.608;9.373;-2.040;-0.008;-0.004;0.002;
20190926_035322;0.601;9.550;-2.076;0.007;-0.006;-0.000;
20190926_035322;0.713;9.414;-1.961;-0.001;-0.005;0.001;
20190926_035322;0.728;9.486;-1.951;-0.002;-0.004;-0.001;
20190926_035322;0.721;9.589;-1.956;0.000;-0.006;-0.000;
20190926_035322;0.769;9.747;-1.800;-0.013;-0.005;0.003;
20190926_035323;0.670;9.431;-2.049;-0.008;-0.004;0.001;
20190926_035323;0.622;9.340;-1.772;-0.011;-0.004;-0.000;
20190926_035323;0.658;9.594;-1.875;0.003;-0.004;0.002;
20190926_035323;0.702;9.479;-1.815;0.000;-0.003;0.002;
20190926_035323;0.764;9.397;-1.858;-0.004;-0.005;-0.001;
20190926_035323;0.627;9.390;-1.784;0.002;-0.004;0.003;
20190926_035323;0.749;9.462;-1.896;-0.005;-0.006;0.004;
20190926_035323;0.673;9.479;-1.808;-0.007;-0.006;0.001;
20190926_035323;0.668;9.457;-1.748;-0.010;-0.002;0.002;
20190926_035323;0.850;9.404;-1.765;0.000;-0.003;0.003;
20190926_035324;0.771;9.601;-1.853;-0.002;-0.003;0.003;
20190926_035324;0.661;9.553;-1.860;0.002;-0.002;-0.000;
20190926_035324;0.752;9.273;-1.832;-0.011;0.000;0.006;
20190926_035324;0.680;9.337;-1.846;0.006;-0.004;-0.001;
20190926_035324;0.737;9.304;-1.827;0.003;0.000;0.003;
20190926_035324;0.673;9.857;-1.920;0.010;-0.005;-0.007;
20190926_035324;0.742;9.644;-1.901;-0.005;-0.001;0.001;
20190926_035324;0.670;9.404;-1.786;-0.007;-0.001;0.002;
20190926_035324;0.587;9.244;-1.872;0.000;-0.001;-0.001;
20190926_035325;0.697;9.649;-1.832;-0.003;-0.002;-0.000;
20190926_035325;0.651;9.890;-1.853;0.000;0.001;0.001;
20190926_035325;0.642;9.436;-1.796;-0.008;0.003;0.006;
20190926_035325;0.704;9.237;-1.918;0.006;0.000;0.001;
20190926_035325;0.541;9.349;-1.860;-0.001;-0.001;0.002;
20190926_035325;0.709;9.859;-1.712;0.005;-0.003;0.004;
20190926_035325;0.479;9.390;-1.769;-0.004;0.001;0.001;
20190926_035325;0.615;9.313;-1.918;0.002;-0.001;0.002;
20190926_035325;0.646;9.558;-1.920;0.002;-0.004;-0.000;
20190926_035325;0.704;9.572;-1.827;0.002;-0.003;0.003;
20190926_035326;0.749;9.644;-1.951;0.001;-0.003;0.001;
20190926_035326;0.668;9.378;-1.808;-0.005;-0.002;0.002;
20190926_035326;0.702;9.282;-1.800;-0.005;-0.001;0.008;
20190926_035326;0.747;9.285;-1.676;-0.005;-0.004;0.002;
20190926_035326;0.694;9.661;-1.772;0.002;-0.004;-0.001;
20190926_035326;0.802;9.443;-1.791;0.002;-0.002;0.001;
20190926_035326;0.725;9.680;-1.796;0.002;-0.005;-0.001;
20190926_035326;0.620;9.371;-1.875;-0.001;-0.007;-0.005;
20190926_035326;0.694;9.558;-1.774;0.002;-0.002;-0.000;
20190926_035327;0.567;9.723;-1.951;0.005;-0.004;-0.000;
20190926_035327;0.752;9.515;-1.796;-0.014;-0.001;0.004;
20190926_035327;0.596;9.543;-1.690;-0.004;-0.005;-0.004;
20190926_035327;0.690;9.416;-1.844;0.002;-0.002;0.002;
20190926_035327;0.745;9.783;-1.932;0.013;0.001;-0.001;
20190926_035327;0.675;9.237;-1.939;-0.003;0.003;0.002;
20190926_035327;0.690;9.357;-1.808;0.001;-0.001;-0.003;
20190926_035327;0.716;9.443;-1.932;0.002;0.004;0.004;
20190926_035327;0.728;9.380;-1.832;0.005;0.000;0.001;
20190926_035327;0.687;9.634;-1.786;0.003;-0.001;-0.007;
20190926_035328;0.575;9.574;-1.858;0.000;-0.001;0.003;
20190926_035328;0.702;9.586;-1.683;-0.005;-0.002;0.001;
20190926_035328;0.560;9.644;-2.061;-0.001;-0.001;-0.004;
20190926_035328;0.649;9.618;-2.009;0.001;0.004;-0.000;
20190926_035328;0.723;9.426;-1.750;-0.010;0.001;0.003;
20190926_035328;0.661;9.325;-1.621;0.001;-0.002;-0.000;
20190926_035328;0.551;9.333;-1.719;-0.002;0.001;-0.001;
20190926_035328;0.591;9.529;-1.978;-0.001;-0.002;-0.001;
20190926_035328;0.539;9.503;-1.738;-0.010;0.004;0.005;
20190926_035328;0.637;9.821;-1.903;0.007;-0.003;-0.006;
20190926_035329;0.611;9.584;-1.784;-0.013;0.001;0.004;
20190926_035329;0.575;9.567;-1.616;-0.003;-0.003;0.002;
20190926_035329;0.646;9.414;-1.810;0.006;0.000;0.002;
20190926_035329;0.642;9.261;-2.006;-0.005;-0.005;-0.000;
20190926_035329;0.572;9.627;-1.834;0.006;-0.002;0.002;
20190926_035329;0.642;9.459;-1.927;-0.007;-0.003;0.005;
20190926_035329;0.630;9.462;-2.071;0.003;-0.001;-0.000;
20190926_035329;0.649;9.436;-1.755;-0.007;-0.002;0.001;
20190926_035329;0.800;9.771;-1.678;0.003;-0.007;0.001;
20190926_035330;0.620;9.555;-1.757;-0.004;-0.002;0.004;
20190926_035330;0.682;9.266;-1.913;0.006;-0.002;0.001;
20190926_035330;0.634;9.251;-2.025;0.002;-0.002;-0.003;
20190926_035330;0.737;9.560;-1.980;-0.007;-0.003;0.005;
20190926_035330;0.702;9.519;-1.635;0.000;-0.004;-0.003;
20190926_035330;0.644;9.601;-1.681;-0.006;-0.004;-0.001;
20190926_035330;0.680;9.431;-1.781;0.010;-0.003;0.002;
20190926_035330;0.728;9.555;-1.860;0.000;-0.004;0.004;
20190926_035330;0.625;9.641;-1.829;-0.003;-0.005;-0.001;
20190926_035330;0.618;9.512;-1.741;-0.003;0.000;0.002;
20190926_035331;0.776;9.443;-1.939;0.001;-0.003;-0.000;
20190926_035331;0.713;9.388;-1.652;-0.006;-0.006;0.002;
20190926_035331;0.656;9.385;-1.645;0.001;-0.003;-0.006;
20190926_035331;0.675;9.685;-1.911;0.010;-0.004;-0.003;
20190926_035331;0.622;9.771;-2.052;-0.001;-0.001;0.004;
20190926_035331;0.651;9.804;-2.040;-0.004;-0.005;-0.001;
20190926_035331;0.634;9.445;-1.664;-0.013;0.000;0.003;
20190926_035331;0.651;9.524;-1.767;-0.001;-0.003;-0.001;
20190926_035331;0.656;9.342;-1.944;0.003;-0.003;0.002;
20190926_035331;0.778;9.316;-1.999;-0.004;-0.002;0.001;
20190926_035332;0.656;9.239;-1.786;-0.016;0.000;-0.003;
20190926_035332;0.656;9.524;-1.700;-0.006;-0.002;0.002;
20190926_035332;0.697;9.390;-1.769;-0.011;-0.001;0.004;
20190926_035332;0.591;9.689;-1.674;0.000;-0.001;-0.003;
20190926_035332;0.723;9.639;-1.772;0.000;-0.001;-0.001;
20190926_035332;0.646;9.165;-1.882;-0.006;0.001;0.004;
20190926_035332;0.706;9.421;-1.889;0.008;-0.004;-0.006;
20190926_035332;0.606;9.641;-1.932;0.000;0.003;-0.000;
20190926_035332;0.702;9.651;-2.124;0.002;0.004;0.002;
20190926_035333;0.666;9.285;-1.858;-0.020;0.003;0.004;
20190926_035333;0.565;9.412;-1.681;0.002;-0.002;-0.003;
20190926_035333;0.716;9.673;-1.666;0.005;0.001;0.001;
20190926_035333;0.697;9.732;-2.047;0.003;0.001;-0.000;
20190926_035333;0.622;9.316;-1.738;-0.008;0.003;-0.000;
20190926_035333;0.685;9.354;-1.796;0.002;-0.001;-0.004;
20190926_035333;0.656;9.577;-1.942;0.009;0.005;-0.003;
20190926_035333;0.742;9.766;-1.946;-0.001;0.005;-0.003;
20190926_035333;0.493;9.507;-1.726;-0.006;0.003;-0.003;
20190926_035333;0.606;9.318;-1.793;-0.002;0.004;0.001;
20190926_035334;0.663;9.749;-2.061;0.009;0.001;-0.006;
20190926_035334;0.572;9.555;-1.827;-0.013;0.005;0.002;
20190926_035334;0.675;9.582;-1.769;-0.002;0.003;-0.004;
20190926_035334;0.622;9.258;-1.676;-0.009;0.008;0.003;
20190926_035334;0.579;9.541;-1.628;0.009;0.001;-0.000;
20190926_035334;0.702;9.524;-1.765;0.007;0.006;-0.003;
20190926_035334;0.579;9.572;-1.788;0.002;0.004;-0.000;
20190926_035334;0.503;9.553;-1.887;-0.011;-0.001;0.002;
20190926_035334;0.548;9.278;-1.853;-0.003;0.004;-0.000;
20190926_035334;0.577;9.567;-1.875;0.002;0.004;-0.005;
20190926_035335;0.656;9.560;-1.719;-0.005;0.005;0.002;
20190926_035335;0.603;9.495;-1.738;0.003;0.000;-0.000;
20190926_035335;0.642;9.337;-1.793;-0.004;0.003;0.002;
20190926_035335;0.546;9.558;-1.911;0.005;0.000;-0.001;
20190926_035335;0.529;9.618;-1.855;-0.011;-0.002;0.003;
20190926_035335;0.505;9.680;-1.860;0.000;-0.001;-0.001;
20190926_035335;0.541;9.476;-1.961;-0.013;-0.002;0.002;
20190926_035335;0.618;9.632;-1.939;0.005;-0.002;-0.000;
20190926_035335;0.565;9.572;-1.686;-0.004;-0.006;0.001;
20190926_035336;0.596;9.567;-1.803;-0.004;-0.006;0.001;
20190926_035336;0.611;9.440;-1.999;-0.001;-0.007;0.001;
20190926_035336;0.611;9.503;-1.796;0.001;-0.004;0.001;
20190926_035336;0.599;9.546;-1.937;0.002;-0.008;-0.001;
20190926_035336;0.752;9.450;-1.800;-0.009;-0.001;0.003;
20190926_035336;0.711;9.486;-1.930;0.008;-0.003;-0.001;
20190926_035336;0.716;9.378;-1.745;-0.005;-0.004;0.001;
20190926_035336;0.709;9.388;-1.779;0.002;-0.006;-0.001;
20190926_035336;0.694;9.481;-1.855;-0.001;-0.005;0.001;
20190926_035336;0.740;9.677;-2.071;0.011;-0.004;-0.001;
20190926_035337;0.603;9.373;-1.760;-0.005;-0.003;0.003;
20190926_035337;0.740;9.565;-1.834;0.005;-0.004;-0.001;
20190926_035337;0.711;9.400;-1.788;-0.008;0.003;0.004;
20190926_035337;0.670;9.601;-1.688;0.007;-0.004;-0.003;
20190926_035337;0.706;9.598;-1.896;0.012;-0.002;-0.003;
20190926_035337;0.678;9.323;-1.855;-0.007;-0.003;0.002;
20190926_035337;0.649;9.661;-1.923;0.005;-0.004;-0.004;
20190926_035337;0.663;9.452;-1.887;-0.002;0.001;0.002;
20190926_035337;0.596;9.704;-1.815;0.001;-0.002;-0.001;
20190926_035337;0.709;9.431;-1.786;0.005;0.000;0.004;
20190926_035338;0.713;9.613;-1.827;0.005;-0.003;-0.001;
20190926_035338;0.555;9.486;-1.915;-0.006;-0.002;-0.001;
20190926_035338;0.764;9.299;-1.889;-0.013;0.001;0.007;
20190926_035338;0.702;9.467;-1.844;0.001;0.000;-0.004;
20190926_035338;0.603;9.670;-1.920;-0.004;0.000;-0.004;
20190926_035338;0.620;9.632;-1.803;-0.011;0.000;0.002;
20190926_035338;0.730;9.558;-1.891;0.009;0.003;-0.000;
20190926_035338;0.666;9.376;-1.736;0.003;0.001;-0.001;
20190926_035338;0.651;9.321;-1.848;-0.002;0.003;0.001;
20190926_035338;0.673;9.586;-2.004;-0.010;-0.001;0.003;
20190926_035339;0.704;9.510;-1.800;-0.001;0.003;0.002;
20190926_035339;0.536;9.443;-1.884;-0.013;0.000;-0.005;
20190926_035339;0.529;9.515;-1.767;0.015;0.005;-0.004;
20190926_035339;0.754;9.644;-1.690;0.010;0.004;-0.001;
20190926_035339;0.639;9.503;-1.628;0.003;0.001;-0.005;
20190926_035339;0.675;9.414;-1.719;-0.003;0.001;0.003;
20190926_035339;0.587;9.448;-1.963;0.000;0.004;-0.004;
20190926_035339;0.553;9.649;-2.018;-0.017;0.005;0.003;
20190926_035339;0.596;9.354;-1.628;-0.049;0.011;0.006;
20190926_035340;0.658;9.431;-1.721;0.017;-0.004;0.007;
20190926_035340;0.426;9.792;-2.274;0.060;-0.014;-0.031;
20190926_035340;0.656;9.436;-1.657;-0.046;0.003;0.005;
20190926_035340;0.620;9.778;-1.705;-0.039;0.003;0.007;
20190926_035340;0.783;9.412;-1.604;-0.051;0.009;0.013;
20190926_035340;0.730;9.419;-1.978;0.068;0.006;-0.016;
20190926_035340;0.500;9.481;-2.157;0.132;-0.002;-0.009;
20190926_035340;0.563;9.505;-1.695;-0.055;0.009;-0.001;
20190926_035340;0.491;9.562;-1.808;-0.001;0.004;0.005;
20190926_035341;0.606;9.512;-1.810;0.016;-0.005;-0.006;
20190926_035341;0.448;9.462;-1.736;-0.008;-0.003;-0.001;
20190926_035341;0.579;9.467;-1.592;-0.005;-0.002;0.002;
20190926_035341;0.639;9.395;-1.592;0.006;-0.007;-0.001;
20190926_035341;0.658;9.649;-1.800;0.042;-0.011;-0.003;
20190926_035341;0.690;9.366;-2.136;0.025;-0.004;0.002;
20190926_035341;0.634;9.610;-1.877;-0.003;-0.005;-0.000;
20190926_035341;0.637;9.615;-1.721;0.000;-0.006;-0.003;
20190926_035341;0.565;9.560;-1.908;0.005;-0.003;-0.000;
20190926_035341;0.658;9.392;-1.757;0.005;-0.005;-0.000;
20190926_035342;0.702;9.749;-1.925;0.010;-0.001;-0.003;
20190926_035342;0.723;9.634;-2.090;0.013;-0.001;-0.005;
20190926_035342;0.754;9.522;-2.308;0.010;-0.003;-0.001;
20190926_035342;0.704;9.519;-2.112;-0.005;0.003;0.001;
20190926_035342;0.603;9.426;-1.877;-0.010;-0.001;0.001;
20190926_035342;0.589;9.677;-1.937;-0.002;0.000;0.001;
20190926_035342;0.611;9.488;-1.796;-0.009;0.001;0.004;
20190926_035342;0.642;9.519;-1.695;-0.001;0.001;0.005;
20190926_035342;0.567;9.392;-1.966;0.015;-0.002;-0.005;
20190926_035342;0.682;9.392;-2.102;-0.021;0.000;-0.000;
20190926_035343;0.723;9.517;-2.397;0.011;-0.004;-0.006;
20190926_035343;0.668;9.433;-1.736;-0.011;0.005;-0.003;
20190926_035343;0.675;9.596;-1.970;0.001;-0.003;-0.006;
20190926_035343;0.713;9.565;-1.844;0.002;0.003;-0.001;
20190926_035343;0.661;9.538;-1.640;-0.016;0.003;0.004;
20190926_035343;0.615;9.160;-1.884;-0.008;0.001;0.001;
20190926_035343;0.668;9.366;-2.040;-0.024;0.010;0.009;
20190926_035343;0.572;9.606;-1.923;-0.001;0.003;-0.004;
20190926_035343;0.599;9.749;-1.618;-0.023;0.004;0.008;
20190926_035343;0.577;9.685;-1.748;0.018;0.001;-0.006;
20190926_035344;0.634;9.230;-1.607;-0.005;0.001;0.003;
20190926_035344;0.663;9.483;-1.614;0.002;0.003;-0.005;
20190926_035344;0.611;9.728;-2.011;0.007;-0.001;-0.005;
20190926_035344;0.625;9.615;-2.016;-0.008;-0.001;0.005;
20190926_035344;0.594;9.340;-1.726;-0.011;0.003;0.005;
20190926_035344;0.479;9.567;-1.628;0.012;0.001;-0.004;
20190926_035344;0.500;9.522;-1.774;-0.007;0.000;0.001;
20190926_035344;0.594;9.625;-1.750;0.010;-0.002;0.002;
20190926_035344;0.702;9.402;-1.733;-0.006;-0.002;-0.000;
20190926_035345;0.632;9.665;-1.676;-0.001;-0.004;-0.005;
20190926_035345;0.697;9.491;-1.990;-0.003;-0.005;-0.000;
20190926_035345;0.584;9.416;-1.927;-0.004;-0.005;0.002;
20190926_035345;0.713;9.438;-1.913;-0.001;-0.005;-0.000;
20190926_035345;0.634;9.553;-1.506;-0.002;-0.001;0.001;
20190926_035345;0.663;9.167;-1.719;0.008;-0.003;0.005;
20190926_035345;0.634;9.723;-1.681;0.019;-0.005;-0.010;
20190926_035345;0.692;9.749;-1.695;0.013;-0.005;-0.005;
20190926_035345;0.639;9.646;-1.994;-0.003;-0.002;0.001;
20190926_035345;0.620;9.404;-1.803;-0.015;-0.003;0.003;
20190926_035346;0.649;9.395;-1.712;0.011;-0.001;-0.003;
20190926_035346;0.711;9.527;-1.997;0.008;-0.005;-0.005;
20190926_035346;0.656;9.670;-1.798;-0.019;0.000;0.006;
20190926_035346;0.608;9.383;-1.956;0.009;-0.004;-0.003;
20190926_035346;0.649;9.397;-1.915;-0.005;-0.006;-0.001;
20190926_035346;0.656;9.711;-2.016;0.018;-0.002;-0.003;
20190926_035346;0.685;9.553;-1.822;-0.001;-0.003;-0.000;
20190926_035346;0.651;9.641;-1.717;-0.009;-0.004;0.002;
20190926_035346;0.620;9.210;-1.970;-0.009;-0.002;0.002;
20190926_035346;0.622;9.483;-2.085;-0.005;-0.006;-0.000;
20190926_035347;0.611;9.567;-1.815;0.006;-0.004;-0.000;
20190926_035347;0.661;9.761;-1.674;-0.005;-0.005;-0.000;
20190926_035347;0.692;9.373;-1.810;0.011;0.003;-0.000;
20190926_035347;0.702;9.426;-1.657;-0.004;-0.004;-0.003;
20190926_035347;0.649;9.548;-1.714;0.022;-0.005;-0.006;
20190926_035347;0.699;9.488;-2.059;-0.001;-0.003;-0.000;
20190926_035347;0.678;9.443;-1.930;0.011;-0.005;-0.001;
20190926_035347;0.675;9.354;-1.745;0.016;-0.002;-0.000;
20190926_035347;0.589;9.682;-1.700;-0.014;0.006;0.002;
20190926_035348;0.773;9.431;-1.834;-0.002;0.000;-0.001;
20190926_035348;0.668;9.584;-1.982;0.015;-0.001;-0.003;
20190926_035348;0.539;9.349;-1.798;-0.005;0.004;0.002;
20190926_035348;0.680;9.404;-1.681;-0.005;-0.004;-0.003;
20190926_035348;0.558;9.519;-2.057;0.001;-0.001;-0.001;
20190926_035348;0.699;9.589;-1.875;0.011;0.001;-0.001;
20190926_035348;0.642;9.570;-1.745;-0.006;0.001;0.001;
20190926_035348;0.620;9.357;-1.822;-0.011;0.010;0.006;
20190926_035348;0.603;9.467;-1.994;0.020;0.003;-0.007;
20190926_035348;0.618;9.560;-1.812;-0.002;-0.003;-0.004;
20190926_035349;0.860;9.471;-1.887;-0.014;0.000;-0.000;
20190926_035349;0.524;9.383;-2.049;0.013;-0.001;-0.006;
20190926_035349;0.728;9.450;-1.949;-0.015;0.005;0.003;
20190926_035349;0.594;9.263;-1.903;-0.021;0.004;-0.000;
20190926_035349;0.582;9.538;-2.258;-0.006;0.001;-0.000;
20190926_035349;0.500;9.821;-1.566;-0.016;0.003;0.001;
20190926_035349;0.412;9.838;-2.014;0.010;0.004;-0.001;
20190926_035349;0.567;9.369;-1.824;-0.006;0.000;0.002;
20190926_035349;0.445;9.555;-1.946;0.026;0.003;-0.006;
20190926_035349;0.589;9.689;-1.879;0.005;0.001;-0.003;
20190926_035350;0.608;9.553;-2.176;0.002;0.004;0.001;
20190926_035350;0.706;9.285;-2.105;-0.006;0.004;-0.000;
20190926_035350;0.733;9.548;-1.939;-0.006;0.001;-0.004;
20190926_035350;0.577;9.663;-2.030;-0.006;0.005;0.002;
20190926_035350;0.572;9.380;-2.016;-0.022;0.004;0.007;
20190926_035350;0.445;9.380;-1.669;-0.007;0.004;0.001;
20190926_035350;0.452;9.692;-2.021;0.000;0.000;-0.003;
20190926_035350;0.599;9.577;-1.712;-0.004;0.003;0.006;
20190926_035350;0.584;9.407;-1.935;0.017;0.004;-0.005;
20190926_035351;0.560;9.404;-1.690;0.012;-0.002;-0.005;
20190926_035351;0.575;9.560;-1.846;0.022;-0.004;-0.000;
20190926_035351;0.697;9.689;-1.767;0.010;-0.008;-0.004;
20190926_035351;0.587;9.606;-2.167;0.018;-0.004;-0.000;
20190926_035351;0.541;9.218;-2.054;0.019;-0.002;-0.001;
20190926_035351;0.630;9.421;-1.757;0.027;0.000;0.001;
20190926_035351;0.503;9.752;-1.932;0.014;-0.005;-0.005;
20190926_035351;0.524;9.670;-2.028;-0.010;0.000;0.001;
20190926_035351;0.589;9.424;-1.923;-0.009;0.007;0.003;
20190926_035351;0.522;9.483;-1.927;-0.029;0.009;0.004;
20190926_035352;0.567;9.754;-1.760;-0.001;0.007;-0.000;
20190926_035352;0.713;9.531;-1.824;-0.063;0.011;0.010;
20190926_035352;0.661;9.364;-1.863;-0.019;0.001;0.002;
20190926_035352;0.666;9.436;-2.090;-0.014;0.004;0.004;
20190926_035352;0.565;9.414;-2.093;-0.016;-0.001;0.002;
20190926_035352;0.670;9.476;-1.829;-0.007;-0.001;0.003;
20190926_035352;0.512;9.459;-1.887;0.013;-0.006;-0.005;
20190926_035352;0.536;9.586;-1.753;-0.013;0.005;0.002;
20190926_035352;0.575;9.455;-1.657;-0.004;0.000;0.003;
20190926_035353;0.534;9.608;-1.858;0.007;0.000;-0.005;
20190926_035353;0.491;9.459;-1.999;-0.008;0.008;-0.000;
20190926_035353;0.776;9.467;-1.822;-0.027;0.006;0.003;
20190926_035353;0.670;9.814;-1.786;-0.095;0.006;0.003;
20190926_035353;0.678;9.550;-1.674;-0.258;0.015;0.007;
20190926_035353;0.706;9.500;-1.396;-0.501;0.032;0.021;
20190926_035353;0.783;9.754;0.417;0.039;-0.223;-0.008;
20190926_035353;0.615;9.347;-0.139;-0.090;-0.049;-0.005;
20190926_035353;0.565;9.658;-0.462;-0.006;0.003;-0.001;
20190926_035354;0.622;9.469;-0.709;0.026;0.003;0.004;
20190926_035354;0.457;9.586;-0.663;0.036;0.000;-0.003;
20190926_035354;0.455;9.493;-0.881;0.087;-0.004;-0.011;
20190926_035354;0.577;9.759;-1.446;0.247;-0.019;-0.011;
20190926_035354;0.682;9.639;-1.130;0.234;-0.028;-0.015;
20190926_035354;0.661;9.419;-1.652;0.337;-0.028;-0.015;
20190926_035354;0.646;9.689;-3.608;0.164;-0.048;-0.019;
20190926_035354;0.752;9.239;-1.700;-0.051;0.000;0.016;
20190926_035354;0.821;9.500;-1.889;0.008;-0.011;-0.003;
20190926_035354;0.709;9.541;-1.992;-0.026;-0.002;0.010;
20190926_035355;0.723;9.349;-2.002;-0.013;0.000;0.006;
20190926_035355;0.685;9.646;-1.844;-0.010;-0.007;-0.003;
20190926_035355;0.802;9.608;-1.901;-0.016;-0.004;0.004;
20190926_035355;0.668;9.383;-1.896;0.000;-0.010;-0.003;
20190926_035355;0.745;9.732;-2.073;-0.002;-0.003;-0.001;
20190926_035355;0.733;9.342;-1.966;0.002;-0.005;-0.000;
20190926_035355;0.850;9.594;-1.827;-0.002;-0.006;-0.000;
20190926_035355;0.742;9.637;-2.160;0.001;-0.006;0.001;
20190926_035355;0.730;9.242;-1.738;-0.027;0.005;0.007;
20190926_035355;0.673;9.474;-1.927;0.024;-0.011;-0.008;
20190926_035356;0.577;9.510;-1.755;-0.016;0.001;0.006;
20190926_035356;0.646;9.639;-1.721;0.008;-0.004;-0.006;
20190926_035356;0.644;9.455;-1.827;-0.013;-0.001;-0.000;
20190926_035356;0.649;9.546;-1.884;0.005;-0.008;-0.004;
20190926_035356;0.637;9.553;-1.808;-0.008;0.006;0.003;
20190926_035356;0.673;9.450;-1.808;-0.004;-0.003;0.002;
20190926_035356;0.766;9.380;-1.832;-0.010;0.005;0.001;
20190926_035356;0.670;9.558;-1.913;0.006;-0.005;-0.003;
20190926_035356;0.632;9.431;-1.848;0.003;0.001;-0.003;
20190926_035357;0.725;9.656;-1.777;-0.004;-0.001;0.001;
20190926_035357;0.462;9.390;-1.611;0.003;0.001;-0.001;
20190926_035357;0.515;9.184;-1.477;-0.010;-0.010;-0.006;
20190926_035357;0.637;9.632;-1.688;-0.024;0.004;0.004;
20190926_035357;0.661;10.618;-1.863;0.003;-0.006;-0.004;
20190926_035357;0.656;9.919;-1.772;-0.010;0.001;0.009;
20190926_035357;0.539;8.801;-1.654;-0.026;-0.001;0.017;
20190926_035357;0.642;8.444;-1.592;-0.002;-0.002;0.009;
20190926_035357;0.637;9.740;-1.863;0.012;-0.003;0.003;
20190926_035357;0.749;9.756;-2.040;0.009;-0.004;0.001;
20190926_035358;0.883;9.304;-1.607;-0.014;0.000;-0.006;
20190926_035358;0.608;9.041;-1.891;0.012;-0.009;-0.016;
20190926_035358;0.630;9.531;-1.937;0.003;-0.003;-0.004;
20190926_035358;0.790;9.938;-1.985;0.007;-0.004;0.003;
20190926_035358;0.680;9.957;-1.906;0.015;0.003;0.002;
20190926_035358;0.603;9.656;-1.820;-0.002;-0.002;0.001;
20190926_035358;0.543;9.220;-1.561;-0.003;-0.001;0.006;
20190926_035358;0.869;9.215;-1.784;0.008;-0.007;-0.006;
20190926_035358;0.867;9.270;-1.745;-0.004;-0.003;-0.008;
20190926_035359;0.524;9.744;-1.963;0.002;-0.005;-0.013;
20190926_035359;0.883;9.510;-1.784;-0.018;0.000;0.007;
20190926_035359;0.476;9.536;-1.925;0.008;-0.001;-0.001;
20190926_035359;0.479;9.926;-1.932;0.000;-0.002;0.001;
20190926_035359;0.529;9.333;-1.827;-0.016;0.004;0.013;
20190926_035359;0.757;9.234;-1.736;-0.001;0.000;0.004;
20190926_035359;0.599;9.582;-1.973;-0.001;-0.006;-0.010;
20190926_035359;0.771;9.876;-1.975;-0.007;0.001;0.002;
20190926_035359;0.769;9.610;-2.126;-0.017;-0.001;0.003;
20190926_035359;0.776;9.074;-1.865;-0.009;0.000;0.001;
20190926_035400;0.622;9.117;-1.774;0.000;-0.001;-0.000;
20190926_035400;0.721;9.754;-2.112;0.008;-0.001;0.007;
20190926_035400;0.860;9.867;-1.896;-0.002;0.000;-0.000;
20190926_035400;0.788;9.105;-1.765;-0.004;-0.002;-0.006;
20190926_035400;0.682;8.950;-1.719;-0.004;-0.001;0.003;
20190926_035400;0.862;9.625;-1.719;-0.002;-0.001;-0.001;
20190926_035400;0.682;9.785;-1.908;0.010;-0.001;-0.006;
20190926_035400;0.522;9.483;-1.832;-0.009;0.003;0.005;
20190926_035400;0.484;9.086;-1.573;0.005;0.004;0.007;
20190926_035401;0.622;9.347;-1.788;0.003;-0.004;-0.006;
20190926_035401;0.601;9.610;-1.911;-0.006;-0.001;-0.006;
20190926_035401;0.682;9.706;-1.882;-0.008;-0.001;0.005;
20190926_035401;0.601;9.603;-1.709;0.001;0.001;-0.004;
20190926_035401;0.615;9.493;-1.736;-0.006;0.003;0.001;
20190926_035401;0.687;9.658;-1.554;0.006;-0.005;-0.003;
20190926_035401;0.555;9.687;-1.678;0.006;0.001;0.004;
20190926_035401;0.632;9.172;-1.774;0.001;-0.002;-0.000;
20190926_035401;0.567;9.629;-1.571;-0.009;-0.004;-0.001;
20190926_035402;0.567;9.562;-1.992;0.015;-0.002;0.003;
20190926_035402;0.682;9.268;-1.717;-0.003;-0.001;0.001;
20190926_035402;0.476;9.311;-1.702;-0.005;-0.006;-0.004;
20190926_035402;0.546;9.206;-1.755;0.009;0.001;0.003;
20190926_035402;0.642;9.436;-1.666;0.009;-0.008;-0.000;
20190926_035402;0.575;9.608;-1.817;0.010;0.001;0.003;
20190926_035402;0.646;9.531;-1.666;0.002;-0.006;-0.004;
20190926_035402;0.826;9.479;-1.693;-0.009;-0.003;0.004;
20190926_035402;0.589;9.373;-1.877;0.009;-0.006;-0.003;
20190926_035402;0.613;9.596;-1.779;-0.013;-0.003;-0.000;
20190926_035403;0.678;9.558;-1.829;-0.010;0.000;0.005;
20190926_035403;0.579;9.498;-1.839;-0.010;-0.004;-0.003;
20190926_035403;0.687;9.517;-1.714;-0.003;-0.003;0.004;
20190926_035403;0.721;9.340;-1.635;-0.003;-0.004;0.001;
20190926_035403;0.706;9.905;-1.798;0.010;-0.006;-0.006;
20190926_035403;0.587;9.627;-1.578;-0.009;0.000;0.005;
20190926_035403;0.713;9.488;-1.472;0.002;-0.006;-0.000;
20190926_035403;0.771;9.519;-1.724;0.007;-0.002;-0.001;
20190926_035403;0.618;9.357;-1.855;-0.007;-0.002;0.003;
20190926_035403;0.845;9.591;-1.690;-0.011;-0.004;0.001;
20190926_035404;0.589;9.512;-1.702;-0.022;0.000;0.003;
20190926_035404;0.611;9.507;-1.733;0.010;0.001;-0.005;
20190926_035404;0.663;9.711;-1.683;-0.001;0.000;-0.001;
20190926_035404;0.699;9.409;-1.863;0.002;0.008;0.002;
20190926_035404;0.733;9.364;-1.575;-0.003;0.005;-0.003;
20190926_035404;0.611;9.536;-1.798;0.009;-0.001;-0.006;
20190926_035404;0.737;9.632;-1.674;0.011;0.006;0.003;
20190926_035404;0.666;9.364;-1.525;0.006;0.007;-0.001;
20190926_035404;0.611;9.452;-2.126;0.017;0.000;-0.008;
20190926_035405;0.634;9.445;-2.289;0.011;0.007;0.001;
20190926_035405;0.711;9.297;-1.750;-0.011;0.004;0.003;
20190926_035405;0.577;9.644;-1.578;0.009;0.001;-0.008;
20190926_035405;0.589;9.321;-1.688;-0.008;0.006;0.002;
20190926_035405;0.690;9.364;-1.640;-0.018;0.003;0.004;
20190926_035405;0.587;9.574;-1.870;0.008;0.001;-0.004;
20190926_035405;0.493;9.627;-1.779;0.033;0.005;-0.008;
20190926_035405;0.591;9.646;-1.527;-0.001;0.006;0.002;
20190926_035405;0.685;9.440;-1.516;0.006;0.001;0.002;
20190926_035405;0.591;9.352;-1.717;0.000;0.006;-0.007;
20190926_035406;0.599;9.443;-1.662;0.005;0.007;0.001;
20190926_035406;0.733;9.383;-1.676;-0.001;0.010;0.003;
20190926_035406;0.567;9.685;-1.877;0.016;0.010;-0.012;
20190926_035406;0.675;9.601;-1.748;0.007;0.009;-0.001;
20190926_035406;0.639;9.675;-1.597;0.007;0.007;-0.001;
20190926_035406;0.587;9.464;-1.925;-0.002;0.009;-0.004;
20190926_035406;0.651;9.622;-1.812;-0.008;0.009;-0.003;
20190926_035406;0.433;9.615;-1.848;0.001;0.007;-0.004;
20190926_035406;0.517;9.335;-1.803;-0.011;0.012;0.005;
20190926_035407;0.393;9.471;-1.573;0.011;0.005;-0.006;
20190926_035407;0.452;9.527;-1.736;-0.006;0.010;0.004;
20190926_035407;0.510;9.582;-1.453;-0.010;0.004;0.005;
20190926_035407;0.611;9.668;-1.542;-0.004;0.005;-0.000;
20190926_035407;0.388;9.634;-1.736;0.003;0.006;-0.000;
20190926_035407;0.491;9.179;-1.846;-0.008;0.007;0.004;
20190926_035407;0.496;9.275;-1.700;0.000;0.000;0.001;
20190926_035407;0.474;9.165;-1.970;0.003;0.003;-0.004;
20190926_035407;0.467;9.376;-1.621;0.002;0.000;0.005;
20190926_035408;0.611;9.318;-1.875;0.013;0.004;0.003;
20190926_035408;0.543;9.467;-1.762;0.005;-0.004;-0.001;
20190926_035408;0.630;9.668;-1.753;0.011;-0.002;0.002;
20190926_035408;0.685;9.632;-1.788;0.008;0.000;0.005;
20190926_035408;0.747;9.421;-1.832;-0.005;-0.006;0.001;
20190926_035408;0.668;9.500;-1.688;-0.008;-0.002;-0.000;
20190926_035408;0.632;9.704;-1.762;0.010;-0.003;0.003;
20190926_035408;0.747;9.304;-1.769;-0.006;0.003;0.006;
20190926_035408;0.666;9.414;-1.721;0.003;-0.007;-0.006;
20190926_035408;0.596;9.720;-1.630;0.005;-0.004;-0.000;
20190926_035409;0.723;10.056;-1.800;0.012;-0.008;-0.003;
20190926_035409;0.675;9.776;-1.774;-0.019;-0.005;-0.001;
20190926_035409;0.668;9.620;-1.808;-0.003;-0.008;-0.006;
20190926_035409;0.563;9.579;-1.659;-0.009;0.001;0.004;
20190926_035409;0.651;9.124;-1.796;-0.007;-0.004;0.007;
20190926_035409;0.577;9.483;-1.726;-0.002;-0.003;-0.001;
20190926_035409;0.678;9.594;-1.748;0.017;-0.001;0.002;
20190926_035409;0.702;9.708;-1.805;0.011;-0.005;0.002;
20190926_035409;0.812;9.641;-1.896;-0.005;-0.003;-0.004;
20190926_035410;0.594;9.349;-1.906;-0.001;-0.004;-0.005;
20190926_035410;0.694;9.503;-1.942;-0.013;-0.004;0.002;
20190926_035410;0.663;9.385;-1.729;-0.015;-0.003;0.008;
20190926_035410;0.704;9.385;-1.942;-0.006;-0.004;-0.000;
20190926_035410;0.603;9.699;-1.918;0.007;-0.005;0.001;
20190926_035410;0.718;9.548;-1.774;-0.004;-0.001;0.007;
20190926_035410;0.737;9.340;-1.817;0.006;-0.001;-0.001;
20190926_035410;0.757;9.720;-1.935;0.005;-0.004;-0.008;
20190926_035410;0.625;9.462;-1.832;0.006;-0.004;0.002;
20190926_035410;0.735;9.230;-1.858;-0.008;0.005;0.006;
20190926_035411;0.532;9.380;-1.937;-0.026;0.005;0.004;
20190926_035411;0.532;9.433;-2.023;0.030;-0.006;-0.006;
20190926_035411;0.718;9.562;-1.777;-0.006;0.005;0.009;
20190926_035411;0.778;9.275;-1.757;0.000;0.000;-0.000;
20190926_035411;0.725;9.637;-1.765;0.005;-0.008;-0.010;
20190926_035411;0.601;9.697;-1.899;-0.004;-0.004;0.001;
20190926_035411;0.565;9.491;-1.700;-0.009;0.003;0.007;
20190926_035411;0.606;9.577;-2.054;0.006;-0.001;-0.005;
20190926_035411;0.560;9.371;-1.925;-0.016;0.001;0.006;
20190926_035412;0.694;9.388;-1.721;0.011;-0.003;0.006;
20190926_035412;0.723;9.479;-1.784;-0.002;-0.001;0.003;
20190926_035412;0.673;9.392;-1.980;-0.007;-0.005;-0.006;
20190926_035412;0.702;9.380;-1.769;-0.006;-0.004;0.001;
20190926_035412;0.723;9.313;-1.676;-0.006;-0.002;0.006;
20190926_035412;0.745;9.275;-1.884;0.014;-0.001;-0.004;
20190926_035412;0.666;9.601;-1.901;0.003;-0.002;-0.000;
20190926_035412;0.611;9.503;-1.949;-0.003;-0.001;0.008;
20190926_035412;0.670;9.258;-1.805;-0.002;-0.003;0.002;
20190926_035412;0.673;9.416;-2.021;0.001;-0.007;-0.005;
20190926_035413;0.469;9.431;-1.686;0.015;0.011;-0.004;
20190926_035413;0.713;9.527;-2.100;0.003;-0.002;-0.000;
20190926_035413;0.582;9.759;-1.791;-0.006;-0.005;-0.005;
20190926_035413;0.663;9.819;-2.136;-0.006;-0.002;0.001;
20190926_035413;0.716;9.819;-1.946;-0.010;-0.002;0.004;
20190926_035413;0.642;9.364;-1.901;-0.002;0.000;-0.000;
20190926_035413;0.639;9.376;-1.793;0.000;-0.003;-0.000;
20190926_035413;0.634;9.505;-1.769;0.007;-0.002;0.006;
20190926_035413;0.570;9.354;-1.870;0.001;-0.004;0.003;
20190926_035414;0.649;9.613;-2.025;0.005;-0.005;-0.006;
20190926_035414;0.639;9.596;-1.808;-0.005;-0.002;0.004;
20190926_035414;0.709;9.258;-1.741;-0.001;-0.003;0.002;
20190926_035414;0.618;9.443;-1.836;-0.004;-0.006;-0.004;
20190926_035414;0.646;9.610;-1.844;0.000;-0.006;-0.000;
20190926_035414;0.783;9.725;-1.817;-0.001;-0.004;0.006;
20190926_035414;0.757;9.359;-1.726;-0.002;-0.003;0.002;
20190926_035414;0.733;9.471;-1.786;0.011;-0.007;-0.007;
20190926_035414;0.771;9.335;-1.877;-0.006;-0.005;0.004;
20190926_035415;0.704;9.352;-1.815;-0.005;-0.003;-0.001;
20190926_035415;0.685;9.565;-1.832;0.003;-0.007;-0.006;
20190926_035415;0.603;9.601;-1.717;-0.005;-0.003;0.001;
20190926_035415;0.661;9.641;-1.815;0.009;-0.006;0.001;
20190926_035415;0.668;9.641;-1.654;0.001;-0.003;0.001;
20190926_035415;0.618;9.629;-1.738;0.008;-0.006;-0.004;
20190926_035415;0.622;9.414;-1.803;-0.010;-0.006;0.002;
20190926_035415;0.711;9.352;-1.908;-0.005;-0.005;0.001;
20190926_035415;0.694;9.699;-1.982;0.000;-0.003;-0.007;
20190926_035415;0.725;9.742;-2.035;-0.003;-0.004;-0.000;
20190926_035416;0.757;9.400;-1.812;-0.010;-0.001;0.004;
20190926_035416;0.745;9.395;-1.946;0.005;-0.003;-0.001;
20190926_035416;0.587;9.421;-1.829;0.007;-0.002;-0.004;
20190926_035416;0.646;9.376;-1.777;0.007;-0.001;0.006;
20190926_035416;0.725;9.306;-1.963;-0.007;-0.001;0.001;
20190926_035416;0.656;9.333;-1.841;-0.003;-0.003;-0.007;
20190926_035416;0.546;9.828;-1.817;0.005;-0.001;-0.000;
20190926_035416;0.642;9.610;-1.781;-0.009;-0.001;0.005;
20190926_035416;0.618;9.294;-1.829;0.006;0.001;-0.004;
20190926_035416;0.546;9.301;-1.923;0.009;0.001;-0.004;
20190926_035417;0.584;9.469;-1.875;0.000;0.000;0.006;
20190926_035417;0.615;9.357;-1.829;-0.004;0.001;0.002;
20190926_035417;0.666;9.464;-1.839;0.006;-0.001;-0.006;
20190926_035417;0.622;9.567;-1.853;-0.002;0.001;-0.001;
20190926_035417;0.625;9.409;-1.829;0.000;0.003;0.005;
20190926_035417;0.634;9.553;-1.935;0.007;0.000;-0.005;
20190926_035417;0.622;9.799;-1.858;0.002;0.001;-0.001;
20190926_035417;0.745;9.495;-1.707;-0.007;0.005;0.010;
20190926_035417;0.630;9.218;-1.853;0.006;-0.001;0.001;
20190926_035418;0.608;9.366;-1.736;0.011;0.001;-0.004;
20190926_035418;0.656;9.622;-1.908;-0.001;0.003;0.002;
20190926_035418;0.687;9.555;-1.736;-0.008;0.003;0.003;
20190926_035418;0.646;9.613;-1.841;0.007;-0.002;-0.006;
20190926_035418;0.462;9.744;-2.128;-0.014;0.000;-0.006;
20190926_035418;0.675;9.519;-2.102;-0.008;0.001;0.004;
20190926_035418;0.704;9.402;-1.767;0.001;0.004;-0.001;
20190926_035418;0.630;9.493;-1.851;0.009;0.003;-0.006;
20190926_035418;0.527;9.385;-1.815;-0.004;0.004;0.003;
20190926_035418;0.634;9.421;-1.882;0.000;0.003;0.001;
20190926_035419;0.567;9.589;-1.932;0.001;0.004;-0.005;
20190926_035419;0.599;9.756;-1.827;-0.002;0.000;-0.000;
20190926_035419;0.553;9.390;-2.164;-0.006;0.008;0.002;
20190926_035419;0.687;9.297;-1.908;-0.009;0.003;-0.003;
20190926_035419;0.627;9.637;-1.709;0.005;-0.001;-0.009;
20190926_035419;0.618;9.601;-1.865;-0.005;0.005;0.003;
20190926_035419;0.632;9.582;-1.889;-0.011;0.003;-0.001;
20190926_035419;0.613;9.419;-1.865;0.001;0.005;-0.003;
20190926_035419;0.541;9.632;-1.906;0.013;0.005;-0.000;
20190926_035420;0.606;9.337;-1.899;0.001;0.005;0.006;
20190926_035420;0.582;9.445;-1.777;0.006;0.004;-0.005;
20190926_035420;0.546;9.426;-1.803;0.002;0.003;-0.003;
20190926_035420;0.515;9.469;-1.853;0.001;0.001;0.001;
20190926_035420;0.661;9.440;-1.855;-0.013;0.005;0.001;
20190926_035420;0.572;9.436;-1.915;-0.005;0.001;-0.001;
20190926_035420;0.594;9.524;-1.882;0.001;0.004;-0.001;
20190926_035420;0.608;9.323;-1.791;-0.001;0.007;0.006;
20190926_035420;0.649;9.500;-1.575;0.014;0.004;-0.004;
20190926_035420;0.543;9.675;-1.939;0.009;0.006;-0.005;
20190926_035421;0.663;9.716;-1.755;-0.001;0.000;-0.000;
20190926_035421;0.603;9.256;-1.726;-0.005;0.006;-0.001;
20190926_035421;0.500;9.455;-1.851;-0.003;-0.004;-0.009;
20190926_035421;0.457;9.670;-1.671;0.006;0.001;0.002;
20190926_035421;0.632;9.529;-1.978;-0.005;-0.001;0.001;
20190926_035421;0.512;9.474;-1.779;-0.011;-0.001;-0.000;
20190926_035421;0.594;9.680;-1.913;0.007;-0.002;-0.004;
20190926_035421;0.678;9.598;-1.877;0.002;0.003;0.004;
20190926_035421;0.608;9.541;-1.788;-0.001;-0.005;-0.003;
20190926_035422;0.584;9.618;-1.853;0.000;-0.001;-0.003;
20190926_035422;0.541;9.550;-1.997;0.000;-0.002;0.003;
20190926_035422;0.622;9.163;-1.949;-0.007;0.004;0.007;
20190926_035422;0.589;9.330;-1.970;-0.007;-0.003;-0.003;
20190926_035422;0.563;9.574;-1.887;0.003;0.004;0.004;
20190926_035422;0.663;9.340;-1.693;-0.004;0.001;0.001;
20190926_035422;0.702;9.524;-1.480;0.003;0.005;-0.003;
20190926_035422;0.599;9.627;-1.743;0.008;-0.001;-0.005;
20190926_035422;0.704;9.486;-1.571;0.006;0.006;0.007;
20190926_035423;0.565;9.210;-1.690;0.009;0.000;-0.003;
20190926_035423;0.608;9.594;-1.559;0.003;-0.003;-0.003;
20190926_035423;0.596;9.618;-1.827;0.008;-0.001;0.002;
20190926_035423;0.776;9.706;-1.755;-0.003;0.000;-0.001;
20190926_035423;0.517;9.424;-1.824;-0.004;0.000;-0.003;
20190926_035423;0.575;9.692;-1.810;0.001;-0.002;-0.004;
20190926_035423;0.656;9.385;-1.750;-0.006;0.003;0.006;
20190926_035423;0.682;9.455;-1.645;-0.010;0.000;-0.000;
20190926_035423;0.421;9.675;-1.724;0.007;0.001;-0.003;
20190926_035423;0.570;9.517;-1.841;0.006;-0.001;0.005;
20190926_035424;0.721;9.641;-1.815;-0.006;0.003;0.002;
20190926_035424;0.606;9.713;-1.927;-0.001;-0.001;-0.003;
20190926_035424;0.575;9.474;-1.992;-0.018;0.000;0.004;
20190926_035424;0.634;9.395;-1.705;-0.006;0.004;0.007;
20190926_035424;0.563;9.510;-1.879;0.010;0.003;-0.004;
20190926_035424;0.479;9.756;-1.527;0.003;-0.001;-0.004;
20190926_035424;0.601;9.685;-1.523;0.007;-0.001;0.005;
20190926_035424;0.553;9.383;-1.590;0.003;-0.002;-0.001;
20190926_035424;0.649;9.776;-1.614;-0.001;-0.003;-0.006;
20190926_035425;0.589;9.572;-1.836;0.001;0.004;0.004;
20190926_035425;0.690;9.127;-1.875;-0.007;-0.004;0.004;
20190926_035425;0.622;9.268;-1.765;0.003;0.000;0.001;
20190926_035425;0.649;9.462;-1.836;0.008;-0.004;-0.005;
20190926_035425;0.747;9.591;-1.611;-0.011;-0.001;0.004;
20190926_035425;0.596;9.505;-1.654;0.003;-0.005;-0.007;
20190926_035425;0.673;9.783;-1.516;-0.005;-0.005;-0.004;
20190926_035425;0.615;9.436;-1.487;-0.006;-0.006;0.002;
20190926_035425;0.697;9.524;-1.729;-0.002;-0.001;0.005;
20190926_035425;0.646;9.663;-1.970;-0.003;-0.005;-0.004;
20190926_035426;0.680;9.474;-1.544;-0.022;-0.004;0.007;
20190926_035426;0.656;9.577;-1.391;0.000;-0.004;-0.000;
20190926_035426;0.742;9.290;-1.784;-0.008;-0.005;0.001;
20190926_035426;0.709;9.716;-1.686;0.001;-0.007;-0.001;
20190926_035426;0.764;9.591;-1.707;-0.004;0.000;0.006;
20190926_035426;0.634;9.469;-1.607;-0.006;-0.004;0.001;
20190926_035426;0.618;9.637;-1.896;0.012;-0.006;-0.003;
20190926_035426;0.668;9.541;-1.645;-0.008;-0.003;0.004;
20190926_035426;0.742;9.000;-1.585;-0.011;-0.003;0.005;
20190926_035427;0.725;9.325;-1.532;-0.002;-0.006;-0.005;
20190926_035427;0.553;9.845;-1.796;0.009;-0.007;-0.000;
20190926_035427;0.711;9.675;-1.915;-0.010;-0.008;0.006;
20190926_035427;0.690;9.455;-1.523;0.007;-0.004;-0.006;
20190926_035427;0.563;9.550;-1.647;-0.018;-0.006;-0.001;
20190926_035427;0.618;9.890;-1.918;-0.011;-0.003;0.009;
20190926_035427;0.816;9.110;-1.712;-0.004;-0.004;0.001;
20190926_035427;0.773;9.620;-1.410;0.010;-0.004;-0.007;
20190926_035427;0.752;9.871;-1.463;0.000;0.000;0.005;
20190926_035427;0.735;9.388;-1.484;-0.002;-0.002;0.004;
20190926_035428;0.723;9.366;-1.757;0.005;-0.002;-0.006;
20190926_035428;0.642;9.340;-1.769;-0.008;-0.001;-0.000;
20190926_035428;0.685;9.553;-1.494;-0.002;0.000;0.004;
20190926_035428;0.680;9.380;-1.662;-0.004;0.000;0.001;
20190926_035428;0.694;9.577;-1.484;-0.011;-0.003;-0.008;
20190926_035428;0.553;9.732;-1.585;-0.023;-0.002;0.003;
20190926_035428;0.634;9.390;-1.448;0.009;-0.001;0.005;
20190926_035428;0.742;9.333;-1.379;-0.003;-0.001;-0.005;
20190926_035428;0.668;9.531;-1.350;-0.008;-0.003;-0.004;
20190926_035429;0.630;9.586;-1.537;0.002;0.001;0.006;
20190926_035429;0.632;9.608;-1.396;0.003;0.003;0.004;
20190926_035429;0.697;9.366;-1.525;-0.001;-0.002;-0.000;
20190926_035429;0.697;9.668;-1.664;0.005;-0.002;-0.001;
20190926_035429;0.833;9.227;-1.614;-0.004;0.003;0.005;
20190926_035429;0.903;9.450;-1.480;-0.010;-0.001;-0.001;
20190926_035429;0.692;9.570;-1.671;0.008;0.000;-0.007;
20190926_035429;0.673;9.689;-1.437;-0.007;0.004;-0.000;
20190926_035429;0.747;9.543;-1.578;0.001;0.004;0.008;
20190926_035429;0.706;9.697;-1.319;-0.006;0.003;-0.005;
20190926_035430;0.704;9.634;-1.544;0.001;0.004;0.001;
20190926_035430;0.543;9.275;-1.398;-0.014;0.005;0.003;
20190926_035430;0.651;9.222;-1.516;0.008;0.005;0.003;
20190926_035430;0.723;9.778;-1.231;-0.009;0.000;-0.009;
20190926_035430;0.527;9.675;-1.657;0.006;0.000;-0.005;
20190926_035430;0.646;9.390;-1.736;-0.001;0.000;0.003;
20190926_035430;0.546;9.917;-1.585;0.003;0.003;-0.003;
20190926_035430;0.522;9.874;-1.575;-0.006;0.001;-0.001;
20190926_035430;0.429;9.632;-1.547;-0.011;0.003;0.004;
20190926_035430;0.589;9.431;-1.913;0.002;0.003;0.003;
20190926_035431;0.737;9.014;-1.817;0.001;0.004;-0.001;
20190926_035431;0.680;9.436;-1.482;-0.001;0.000;-0.006;
20190926_035431;0.728;9.371;-1.417;-0.010;0.005;0.004;
20190926_035431;0.759;9.541;-1.575;-0.007;-0.001;-0.000;
20190926_035431;0.632;9.493;-1.645;-0.014;0.000;-0.003;
20190926_035431;0.625;9.663;-1.302;-0.019;-0.002;0.005;
20190926_035431;0.500;9.888;-1.480;-0.001;0.004;0.004;
20190926_035431;0.634;9.524;-1.697;-0.011;-0.002;0.004;
20190926_035431;0.572;9.486;-1.441;-0.010;-0.001;0.001;
20190926_035432;0.591;9.249;-1.530;0.003;0.000;0.002;
20190926_035432;0.572;9.096;-1.523;0.006;-0.002;0.002;
20190926_035432;0.745;9.342;-1.408;0.001;-0.004;-0.006;
20190926_035432;0.723;9.479;-1.379;0.000;-0.001;0.002;
20190926_035432;0.682;9.905;-1.372;0.008;-0.003;-0.001;
20190926_035432;0.723;9.680;-1.563;0.008;-0.003;0.002;
20190926_035432;0.622;9.555;-1.604;0.005;-0.003;-0.006;
20190926_035432;0.620;9.436;-1.664;-0.005;-0.004;0.002;
20190926_035432;0.627;9.474;-1.611;-0.010;-0.002;-0.000;
20190926_035432;0.795;9.874;-1.516;-0.011;-0.007;-0.005;
20190926_035433;0.496;9.359;-1.307;-0.004;-0.001;-0.000;
20190926_035433;0.759;9.373;-1.365;0.008;-0.005;-0.005;
20190926_035433;0.826;9.871;-1.408;0.000;-0.001;-0.000;
20190926_035433;0.661;9.756;-1.350;0.007;-0.001;-0.003;
20190926_035433;0.606;9.251;-1.322;0.006;-0.002;0.001;
20190926_035433;0.735;9.392;-1.501;0.006;-0.004;-0.001;
20190926_035433;0.644;9.582;-1.726;0.008;-0.002;-0.000;
20190926_035433;0.658;9.857;-1.777;0.006;-0.004;-0.003;
20190926_035433;0.558;9.529;-1.808;0.005;0.000;0.001;
20190926_035434;0.570;9.515;-1.705;-0.008;-0.001;-0.000;
20190926_035434;0.575;9.589;-1.939;0.002;-0.003;0.001;
20190926_035434;0.627;9.687;-1.769;-0.007;0.000;0.004;
20190926_035434;0.620;9.543;-1.707;-0.011;-0.003;0.004;
20190926_035434;0.606;9.364;-1.568;-0.013;0.000;0.001;
20190926_035434;0.711;9.433;-1.638;0.002;-0.002;-0.000;
20190926_035434;0.713;9.515;-1.365;-0.001;0.000;-0.001;
20190926_035434;0.675;9.438;-1.535;0.005;-0.001;-0.003;
20190926_035434;0.697;9.242;-1.475;-0.008;-0.001;0.001;
20190926_035434;0.546;9.515;-1.717;0.011;-0.004;-0.000;
20190926_035435;0.618;9.785;-1.671;-0.013;-0.003;0.005;
20190926_035435;0.634;9.888;-1.803;-0.004;-0.002;0.001;
20190926_035435;0.642;9.589;-1.760;-0.003;0.001;0.006;
20190926_035435;0.656;9.256;-1.633;-0.006;-0.001;-0.000;
20190926_035435;0.730;9.266;-1.527;-0.004;-0.003;-0.001;
20190926_035435;0.661;9.483;-1.748;-0.003;-0.003;0.002;
20190926_035435;0.745;9.720;-1.633;-0.005;-0.001;-0.003;
20190926_035435;0.687;9.488;-1.652;-0.017;0.001;0.002;
20190926_035435;0.649;9.433;-1.525;-0.005;0.001;-0.000;
20190926_035436;0.553;9.517;-1.650;0.005;0.001;-0.004;
20190926_035436;0.642;9.345;-1.501;0.000;0.004;0.002;
20190926_035436;0.651;9.706;-1.604;0.002;-0.002;-0.005;
20190926_035436;0.558;9.586;-1.714;-0.005;0.003;-0.000;
20190926_035436;0.520;9.414;-1.551;-0.006;0.004;0.002;
20190926_035436;0.548;9.807;-1.535;0.007;0.001;-0.000;
20190926_035436;0.615;9.582;-1.472;-0.005;0.000;-0.000;
20190926_035436;0.567;9.390;-1.504;0.006;-0.001;-0.000;
20190926_035436;0.625;9.151;-1.575;-0.004;0.001;0.005;
20190926_035436;0.558;9.369;-1.757;0.007;-0.001;-0.003;
20190926_035437;0.606;9.732;-1.652;0.003;0.000;-0.003;
20190926_035437;0.702;9.785;-1.532;-0.010;0.003;0.003;
20190926_035437;0.615;9.577;-1.547;0.005;0.000;-0.000;
20190926_035437;0.587;9.175;-1.492;-0.003;0.003;0.002;
20190926_035437;0.603;9.448;-1.642;0.007;-0.001;-0.005;
20190926_035437;0.582;9.414;-1.571;0.000;0.000;0.002;
20190926_035437;0.656;9.658;-1.607;0.005;0.000;0.001;
20190926_035437;0.606;9.577;-1.504;0.005;-0.001;-0.000;
20190926_035437;0.594;9.510;-1.458;0.005;-0.001;-0.000;
20190926_035438;0.589;9.670;-1.645;0.006;-0.001;-0.001;
20190926_035438;0.596;9.467;-1.583;0.007;-0.002;-0.000;
20190926_035438;0.699;9.400;-1.559;-0.006;0.000;-0.001;
20190926_035438;0.644;9.474;-1.554;0.006;-0.004;-0.003;
20190926_035438;0.637;9.641;-1.611;0.005;-0.003;-0.000;
20190926_035438;0.625;9.749;-1.468;0.003;-0.001;-0.005;
20190926_035438;0.601;9.555;-1.496;0.009;-0.002;-0.001;
20190926_035438;0.620;9.464;-1.506;0.001;0.000;0.001;
20190926_035438;0.584;9.567;-1.463;0.008;-0.004;-0.003;
20190926_035438;0.575;9.606;-1.472;0.005;-0.001;0.002;
20190926_035439;0.575;9.675;-1.755;0.002;-0.002;-0.001;
20190926_035439;0.582;9.527;-1.607;-0.010;-0.003;0.004;
20190926_035439;0.735;9.445;-1.599;-0.001;-0.004;-0.003;
20190926_035439;0.642;9.759;-1.901;-0.002;-0.004;-0.006;
20190926_035439;0.706;9.503;-1.944;-0.016;-0.002;0.005;
20190926_035439;0.579;9.311;-1.846;-0.013;0.000;0.002;
20190926_035439;0.630;9.364;-1.642;-0.011;-0.001;0.003;
20190926_035439;0.608;9.603;-1.784;-0.008;-0.003;0.002;
20190926_035439;0.663;9.831;-1.542;-0.016;-0.003;0.005;
20190926_035440;0.673;9.495;-1.765;0.001;-0.002;0.003;
20190926_035440;0.670;9.098;-1.748;-0.002;-0.002;-0.001;
20190926_035440;0.661;9.318;-1.379;-0.003;-0.005;0.002;
20190926_035440;0.706;9.301;-1.518;-0.005;0.000;-0.000;
20190926_035440;0.699;9.773;-1.463;0.002;-0.004;-0.003;
20190926_035440;0.613;9.697;-1.329;-0.003;-0.002;-0.000;
20190926_035440;0.654;9.407;-1.477;0.017;-0.003;0.001;
20190926_035440;0.654;9.440;-1.554;0.007;-0.004;-0.004;
20190926_035440;0.594;9.582;-1.604;-0.002;-0.004;-0.001;
20190926_035440;0.630;9.622;-1.571;-0.002;-0.004;0.002;
20190926_035441;0.685;9.610;-1.621;-0.007;-0.003;-0.000;
20190926_035441;0.668;9.404;-1.547;0.007;-0.005;-0.004;
20190926_035441;0.694;9.584;-1.460;-0.006;-0.005;-0.003;
20190926_035441;0.493;9.656;-1.621;-0.003;-0.001;0.002;
20190926_035441;0.613;9.467;-1.860;-0.001;-0.006;0.001;
20190926_035441;0.687;9.500;-1.693;-0.010;-0.004;-0.001;
20190926_035441;0.563;9.685;-1.741;-0.002;-0.003;0.001;
20190926_035441;0.687;9.524;-1.695;-0.011;-0.002;0.006;
20190926_035441;0.642;9.206;-1.633;-0.017;-0.001;0.004;
20190926_035442;0.572;9.273;-1.566;-0.001;-0.006;-0.004;
20190926_035442;0.670;9.610;-1.633;0.000;-0.002;-0.003;
20190926_035442;0.764;9.613;-1.575;0.010;-0.002;-0.000;
20190926_035442;0.687;9.646;-1.650;-0.002;-0.004;-0.005;
20190926_035442;0.704;9.685;-1.501;0.003;0.000;0.002;
20190926_035442;0.558;9.213;-1.571;0.000;0.003;0.005;
20190926_035442;0.656;9.371;-1.358;-0.005;-0.001;0.001;
20190926_035442;0.663;9.728;-1.554;0.007;-0.002;-0.003;
20190926_035442;0.752;9.555;-1.262;0.002;0.000;-0.001;
20190926_035442;0.802;9.483;-1.331;0.006;-0.001;-0.005;
20190926_035443;0.706;9.761;-1.369;-0.001;0.005;-0.005;
20190926_035443;0.699;9.632;-1.480;0.006;0.005;-0.003;
20190926_035443;0.654;9.546;-1.456;-0.004;0.008;0.002;
20190926_035443;0.603;9.646;-1.590;0.010;0.005;-0.004;
20190926_035443;0.627;9.538;-1.448;0.003;0.007;-0.003;
20190926_035443;0.666;9.701;-1.348;0.017;0.007;-0.005;
20190926_035443;0.656;9.749;-1.444;0.009;0.011;-0.001;
20190926_035443;0.625;9.969;-1.616;0.006;0.008;-0.005;
20190926_035443;0.503;9.388;-1.630;-0.003;0.011;-0.001;
20190926_035444;0.678;9.330;-1.633;-0.013;0.010;-0.004;
20190926_035444;0.730;9.591;-1.638;-0.003;0.011;-0.006;
20190926_035444;0.654;9.835;-1.573;-0.002;0.015;-0.001;
20190926_035444;0.723;9.610;-1.451;-0.002;0.013;0.001;
20190926_035444;0.666;9.254;-1.530;-0.003;0.017;-0.000;
20190926_035444;0.656;9.553;-1.578;-0.001;0.016;-0.004;
20190926_035444;0.543;9.483;-1.360;0.000;0.022;-0.000;
20190926_035444;0.637;9.519;-1.444;-0.001;0.021;-0.003;
20190926_035444;0.699;9.507;-1.393;-0.001;0.021;-0.006;
20190926_035444;0.632;9.673;-1.757;0.007;0.023;-0.008;
20190926_035445;0.651;9.471;-1.609;0.001;0.025;0.002;
20190926_035445;0.575;9.546;-1.501;0.003;0.026;-0.003;
20190926_035445;0.455;9.606;-1.602;0.012;0.024;-0.005;
20190926_035445;0.577;9.500;-1.580;0.005;0.028;0.001;
20190926_035445;0.553;9.282;-1.781;0.010;0.025;-0.005;
20190926_035445;0.706;9.376;-1.676;0.005;0.026;-0.010;
20190926_035445;0.651;9.589;-1.958;0.008;0.027;-0.010;
20190926_035445;0.599;9.577;-1.937;0.002;0.031;-0.000;
20190926_035445;0.622;9.531;-1.832;-0.006;0.031;0.002;
20190926_035446;0.460;9.512;-1.958;-0.004;0.032;-0.007;
20190926_035446;0.450;9.503;-1.911;-0.002;0.031;-0.000;
20190926_035446;0.515;9.328;-1.901;-0.008;0.039;0.001;
20190926_035446;0.599;9.333;-1.935;0.007;0.035;-0.009;
20190926_035446;0.603;9.431;-1.863;-0.007;0.038;-0.008;
20190926_035446;0.488;9.462;-1.906;-0.005;0.038;-0.004;
20190926_035446;0.486;9.373;-1.973;0.008;0.042;0.002;
20190926_035446;0.462;9.500;-1.793;-0.002;0.040;-0.006;
20190926_035446;0.330;9.572;-1.903;-0.003;0.040;-0.003;
20190926_035446;0.496;9.503;-1.942;-0.010;0.042;0.001;
20190926_035447;0.508;9.608;-1.901;-0.006;0.040;-0.009;
20190926_035447;0.522;9.479;-1.853;-0.006;0.041;-0.007;
20190926_035447;0.441;9.416;-1.951;0.003;0.042;-0.005;
20190926_035447;0.532;9.376;-1.652;0.006;0.044;0.002;
20190926_035447;0.402;9.706;-1.772;0.006;0.040;-0.010;
20190926_035447;0.419;9.713;-1.930;0.005;0.042;-0.005;
20190926_035447;0.462;9.395;-1.863;0.002;0.043;-0.003;
20190926_035447;0.565;9.373;-1.659;0.006;0.042;-0.008;
20190926_035447;0.527;9.663;-1.705;0.012;0.043;-0.011;
20190926_035448;0.469;9.646;-1.906;0.013;0.043;-0.009;
20190926_035448;0.429;9.486;-1.832;-0.008;0.048;0.004;
20190926_035448;0.481;9.414;-1.755;0.006;0.045;-0.005;
20190926_035448;0.297;9.598;-1.930;0.000;0.048;-0.005;
20190926_035448;0.488;9.601;-1.805;0.000;0.048;0.001;
20190926_035448;0.508;9.354;-1.805;0.001;0.050;-0.004;
20190926_035448;0.532;9.419;-1.930;0.002;0.048;-0.009;
20190926_035448;0.445;9.553;-1.915;0.000;0.054;-0.003;
20190926_035448;0.488;9.459;-1.820;-0.001;0.055;0.002;
20190926_035448;0.498;9.632;-1.774;0.003;0.052;-0.006;
20190926_035449;0.445;9.562;-1.767;-0.001;0.054;-0.007;
20190926_035449;0.400;9.431;-1.788;0.000;0.054;-0.000;
20190926_035449;0.570;9.122;-1.841;-0.005;0.058;-0.000;
20190926_035449;0.522;9.759;-1.817;0.011;0.052;-0.016;
20190926_035449;0.512;9.797;-1.932;-0.001;0.057;-0.004;
20190926_035449;0.520;9.407;-1.908;-0.008;0.059;0.003;
20190926_035449;0.563;9.309;-1.724;0.008;0.058;-0.008;
20190926_035449;0.441;9.811;-1.657;0.007;0.058;-0.011;
20190926_035449;0.407;9.689;-1.760;0.002;0.061;-0.001;
20190926_035450;0.668;9.213;-1.630;0.005;0.063;-0.005;
20190926_035450;0.527;9.345;-1.788;0.008;0.060;-0.016;
20190926_035450;0.534;9.888;-1.858;0.005;0.061;-0.010;
20190926_035450;0.548;9.802;-1.788;0.003;0.066;0.004;
20190926_035450;0.472;9.203;-1.697;-0.008;0.068;-0.004;
20190926_035450;0.417;9.237;-1.755;0.011;0.065;-0.009;
20190926_035450;0.421;9.512;-1.717;0.003;0.068;-0.003;
20190926_035450;0.606;9.649;-1.772;0.007;0.068;-0.008;
20190926_035450;0.553;9.644;-1.707;-0.004;0.068;-0.019;
20190926_035450;0.503;9.471;-1.832;0.000;0.069;-0.012;
20190926_035451;0.500;9.194;-1.693;0.001;0.071;-0.005;
20190926_035451;0.441;9.936;-1.903;0.009;0.072;-0.012;
20190926_035451;0.290;9.687;-1.611;0.001;0.074;-0.005;
20190926_035451;0.335;9.256;-1.621;-0.002;0.074;-0.000;
20190926_035451;0.421;9.172;-1.686;0.013;0.072;-0.010;
20190926_035451;0.457;9.972;-1.494;0.014;0.075;-0.014;
20190926_035451;0.788;9.419;-1.693;0.006;0.073;-0.010;
20190926_035451;0.934;9.632;-1.578;0.002;0.078;-0.008;
20190926_035451;0.350;9.543;-1.800;0.003;0.077;-0.022;
20190926_035452;0.613;9.270;-1.793;-0.003;0.084;-0.006;
20190926_035452;0.668;9.486;-1.918;-0.007;0.080;-0.019;
20190926_035452;0.457;9.443;-1.647;-0.001;0.086;-0.017;
20190926_035452;0.278;9.337;-1.642;0.008;0.085;-0.016;
20190926_035452;0.302;9.407;-1.609;0.003;0.088;-0.009;
20190926_035452;0.347;9.529;-1.688;0.012;0.090;-0.013;
20190926_035452;0.247;9.661;-1.827;0.010;0.089;-0.013;
20190926_035452;0.273;9.601;-1.865;-0.003;0.092;-0.004;
20190926_035452;0.397;9.464;-1.731;0.007;0.091;-0.006;
20190926_035453;0.302;9.618;-1.753;0.008;0.091;-0.014;
20190926_035453;0.421;9.601;-1.757;0.005;0.093;-0.011;
20190926_035453;0.433;9.153;-1.664;0.001;0.095;-0.012;
20190926_035453;0.476;9.347;-1.748;0.007;0.093;-0.014;
20190926_035453;0.405;9.823;-1.796;0.010;0.091;-0.023;
20190926_035453;0.388;9.883;-1.968;0.001;0.096;-0.015;
20190926_035453;0.266;9.503;-1.791;-0.006;0.096;-0.014;
20190926_035453;0.340;9.163;-1.855;0.007;0.097;-0.017;
20190926_035453;0.208;9.495;-1.616;0.007;0.094;-0.021;
20190926_035453;0.218;9.618;-1.777;0.008;0.095;-0.014;
20190926_035454;0.230;9.436;-1.712;0.010;0.098;-0.014;
20190926_035454;0.275;9.474;-1.846;0.012;0.092;-0.022;
20190926_035454;0.285;9.601;-1.693;0.000;0.097;-0.013;
20190926_035454;0.266;9.730;-1.927;0.009;0.095;-0.015;
20190926_035454;0.208;9.622;-1.812;0.002;0.097;-0.015;
20190926_035454;0.230;9.404;-1.946;0.005;0.098;-0.016;
20190926_035454;0.196;9.337;-1.846;0.001;0.099;-0.012;
20190926_035454;0.182;9.584;-1.772;0.011;0.098;-0.014;
20190926_035454;0.256;9.555;-1.942;0.008;0.097;-0.010;
20190926_035454;0.158;9.625;-1.894;0.011;0.097;-0.010;
20190926_035455;0.184;9.306;-1.812;-0.001;0.099;-0.008;
20190926_035455;0.244;9.680;-1.956;0.017;0.095;-0.016;
20190926_035455;0.402;9.759;-1.961;-0.004;0.099;-0.010;
20190926_035455;0.376;9.512;-2.006;0.003;0.099;-0.014;
20190926_035455;0.318;9.275;-1.985;-0.004;0.102;-0.014;
20190926_035455;0.378;9.297;-1.973;0.003;0.101;-0.016;
20190926_035455;0.328;9.493;-1.827;0.003;0.102;-0.016;
20190926_035455;0.326;9.742;-1.906;0.001;0.101;-0.017;
20190926_035455;0.259;9.565;-1.954;0.003;0.103;-0.019;
20190926_035456;0.139;9.486;-1.791;-0.003;0.103;-0.014;
20190926_035456;0.254;9.641;-1.839;0.007;0.104;-0.013;
20190926_035456;0.148;9.625;-1.777;0.003;0.106;-0.014;
20190926_035456;0.062;9.553;-1.808;0.002;0.104;-0.013;
20190926_035456;0.139;9.122;-1.693;0.006;0.107;-0.011;
20190926_035456;0.227;9.352;-1.650;0.016;0.102;-0.021;
20190926_035456;0.230;9.867;-1.750;0.010;0.103;-0.019;
20190926_035456;0.175;9.598;-1.863;0.002;0.104;-0.012;
20190926_035456;0.239;9.311;-1.815;0.000;0.104;-0.013;
20190926_035457;0.105;9.596;-1.757;0.010;0.101;-0.017;
20190926_035457;0.019;9.716;-1.726;0.002;0.105;-0.013;
20190926_035457;0.105;9.424;-1.930;0.005;0.101;-0.015;
20190926_035457;0.251;9.287;-1.853;-0.003;0.101;-0.020;
20190926_035457;0.194;9.210;-1.944;0.002;0.099;-0.021;
20190926_035457;0.136;9.510;-1.762;0.005;0.101;-0.016;
20190926_035457;0.074;9.699;-1.824;0.007;0.097;-0.012;
20190926_035457;0.005;9.359;-1.784;0.002;0.099;-0.010;
20190926_035457;-0.069;9.342;-1.693;0.008;0.095;-0.014;
20190926_035457;0.050;9.548;-1.683;0.006;0.093;-0.013;
20190926_035458;0.115;9.776;-1.621;0.007;0.093;-0.014;
20190926_035458;0.144;9.596;-1.887;0.005;0.088;-0.017;
20190926_035458;0.103;9.419;-1.664;-0.004;0.089;-0.017;
20190926_035458;0.194;9.586;-1.774;0.003;0.088;-0.012;
20190926_035458;0.153;9.565;-1.913;-0.001;0.087;-0.012;
20190926_035458;0.081;9.471;-1.784;-0.004;0.085;-0.014;
20190926_035458;0.103;9.179;-1.805;0.009;0.084;-0.013;
20190926_035458;0.139;9.234;-1.599;0.000;0.082;-0.011;
20190926_035458;0.194;9.962;-1.676;0.020;0.079;-0.017;
20190926_035458;0.144;10.005;-1.709;0.005;0.084;-0.010;
20190926_035459;0.220;9.529;-1.870;0.008;0.081;-0.007;
20190926_035459;0.115;9.189;-1.573;-0.005;0.082;-0.003;
20190926_035459;0.199;9.653;-1.779;0.015;0.076;-0.015;
20190926_035459;0.280;9.474;-1.707;-0.003;0.078;-0.011;
20190926_035459;0.443;9.134;-1.583;0.007;0.076;-0.015;
20190926_035459;0.376;9.244;-1.714;0.010;0.074;-0.023;
20190926_035459;0.426;9.644;-1.719;0.014;0.072;-0.022;
20190926_035459;0.259;9.979;-1.822;0.015;0.075;-0.017;
20190926_035459;0.254;9.874;-1.863;0.002;0.076;-0.011;
20190926_035500;0.010;9.651;-1.846;-0.003;0.074;-0.014;
20190926_035500;0.153;9.479;-1.822;-0.004;0.076;-0.007;
20190926_035500;-0.074;9.747;-1.659;0.006;0.071;-0.013;
20190926_035500;0.196;9.776;-1.781;0.003;0.073;-0.005;
20190926_035500;0.211;9.378;-1.745;-0.001;0.074;-0.007;
20190926_035500;0.232;9.325;-1.757;0.009;0.072;-0.007;
20190926_035500;0.239;9.467;-1.738;0.003;0.072;-0.007;
20190926_035500;0.352;9.694;-1.724;0.011;0.070;-0.012;
20190926_035500;0.460;9.680;-2.016;0.003;0.072;-0.013;
20190926_035500;0.433;9.342;-1.812;-0.005;0.068;-0.023;
20190926_035501;0.321;9.922;-1.844;0.019;0.068;-0.027;
20190926_035501;0.249;9.807;-1.812;0.001;0.072;-0.010;
20190926_035501;0.055;9.831;-1.779;0.005;0.071;-0.013;
20190926_035501;0.077;9.725;-1.767;-0.007;0.074;0.005;
20190926_035501;-0.113;9.349;-1.441;0.019;0.071;-0.001;
20190926_035501;0.041;9.768;-1.587;0.014;0.069;-0.003;
20190926_035501;0.117;9.594;-1.779;0.008;0.071;-0.011;
20190926_035501;0.340;9.366;-1.963;-0.008;0.064;-0.019;
20190926_035501;0.716;9.522;-1.999;-0.002;0.065;-0.020;
20190926_035502;0.661;10.353;-1.733;0.011;0.063;-0.022;
20190926_035502;0.436;9.914;-1.774;0.009;0.064;-0.014;
20190926_035502;0.108;9.232;-1.798;-0.008;0.071;-0.004;
20190926_035502;0.022;9.579;-1.906;0.008;0.068;-0.006;
20190926_035502;-0.034;9.625;-1.757;0.010;0.066;0.002;
20190926_035502;0.062;9.778;-1.686;0.000;0.066;-0.001;
20190926_035502;0.170;9.246;-1.824;-0.011;0.065;-0.003;
20190926_035502;0.285;8.947;-1.733;0.002;0.060;-0.009;
20190926_035502;0.426;9.110;-1.695;-0.001;0.066;-0.009;
20190926_035502;0.326;9.761;-1.733;0.011;0.057;-0.017;
20190926_035503;0.263;9.917;-1.638;0.010;0.062;-0.012;
20190926_035503;0.101;9.445;-1.846;-0.003;0.061;-0.007;
20190926_035503;0.223;9.330;-1.870;0.001;0.058;-0.011;
20190926_035503;0.115;9.287;-1.791;-0.007;0.061;-0.007;
20190926_035503;0.196;9.481;-1.767;-0.002;0.058;-0.009;
20190926_035503;0.278;9.752;-1.853;0.011;0.058;-0.012;
20190926_035503;0.381;9.299;-1.719;-0.008;0.060;-0.007;
20190926_035503;0.309;9.421;-1.858;0.008;0.057;-0.017;
20190926_035503;0.330;9.584;-1.494;-0.004;0.057;-0.009;
20190926_035504;0.263;9.421;-1.858;0.017;0.058;-0.013;
20190926_035504;0.220;9.199;-1.781;0.001;0.058;-0.010;
20190926_035504;0.156;9.881;-1.796;0.016;0.055;-0.013;
20190926_035504;0.134;9.886;-1.894;0.003;0.060;-0.004;
20190926_035504;0.175;9.505;-1.772;0.005;0.055;-0.009;
20190926_035504;0.156;9.029;-1.652;-0.003;0.055;-0.006;
20190926_035504;0.053;9.452;-1.757;0.005;0.053;-0.010;
20190926_035504;0.247;9.572;-1.822;0.001;0.047;-0.005;
20190926_035504;0.108;9.761;-1.607;0.007;0.050;-0.007;
20190926_035505;0.091;9.752;-1.810;-0.005;0.044;-0.005;
20190926_035505;0.031;9.357;-1.599;-0.001;0.042;-0.007;
20190926_035505;0.141;9.527;-1.743;0.008;0.033;-0.011;
20190926_035505;0.136;9.821;-1.815;0.005;0.037;-0.010;
20190926_035505;0.280;9.637;-1.726;0.001;0.030;-0.008;
20190926_035505;0.098;9.519;-1.645;0.002;0.032;-0.004;
20190926_035505;0.134;9.084;-1.709;-0.004;0.026;0.001;
20190926_035505;0.120;9.282;-1.769;0.007;0.024;-0.001;
20190926_035505;0.350;9.713;-1.724;0.005;0.020;-0.004;
20190926_035505;0.362;9.814;-1.820;0.009;0.022;0.001;
20190926_035506;0.481;9.720;-1.496;0.011;0.021;-0.007;
20190926_035506;0.500;9.416;-1.896;0.000;0.017;-0.009;
20190926_035506;0.512;9.517;-1.597;0.005;0.014;-0.006;
20190926_035506;0.520;9.565;-1.743;0.009;0.016;-0.001;
20190926_035506;0.412;9.519;-1.724;0.003;0.014;-0.000;
20190926_035506;0.249;9.500;-1.561;-0.001;0.012;0.001;
20190926_035506;0.306;9.110;-1.638;-0.004;0.016;0.009;
20190926_035506;0.474;9.483;-1.717;0.012;0.010;-0.008;
20190926_035506;0.551;9.651;-1.791;-0.001;0.009;-0.008;
20190926_035507;0.622;9.855;-1.817;-0.001;0.009;-0.005;
20190926_035507;0.563;9.325;-1.717;-0.007;0.012;-0.000;
20190926_035507;0.505;9.357;-1.894;0.007;0.007;-0.009;
20190926_035507;0.469;9.294;-1.798;0.007;0.010;-0.003;
20190926_035507;0.546;9.538;-1.793;0.006;0.009;-0.001;
20190926_035507;0.644;9.577;-1.674;0.005;0.013;-0.001;
20190926_035507;0.536;9.550;-1.836;0.008;0.008;-0.009;
20190926_035507;0.577;9.543;-1.827;0.006;0.011;-0.003;
20190926_035507;0.452;9.438;-1.650;0.000;0.010;-0.001;
20190926_035507;0.438;9.380;-1.607;-0.004;0.010;0.001;
20190926_035508;0.474;9.541;-1.788;0.005;0.008;-0.006;
20190926_035508;0.553;9.584;-1.824;-0.001;0.008;-0.004;
20190926_035508;0.615;9.503;-1.709;-0.006;0.011;0.001;
20190926_035508;0.438;9.574;-1.817;0.002;0.005;-0.009;
20190926_035508;0.381;9.562;-1.705;-0.010;0.009;0.002;
20190926_035508;0.424;9.364;-1.791;-0.005;0.013;0.008;
20190926_035508;0.429;9.407;-1.707;0.000;0.010;0.005;
20190926_035508;0.441;9.388;-1.544;-0.002;0.006;0.002;
20190926_035508;0.606;9.656;-1.733;0.011;0.007;-0.003;
20190926_035508;0.601;9.436;-1.719;-0.007;0.005;-0.003;
20190926_035509;0.802;9.488;-1.537;0.013;0.007;-0.009;
20190926_035509;0.608;9.515;-1.808;0.005;0.008;-0.009;
20190926_035509;0.620;9.589;-1.580;0.002;0.008;-0.001;
20190926_035509;0.522;9.510;-1.676;0.006;0.011;-0.001;
20190926_035509;0.455;9.744;-1.913;-0.004;0.010;-0.003;
20190926_035509;0.505;9.431;-1.894;-0.010;0.012;0.002;
20190926_035509;0.484;9.251;-1.798;-0.010;0.013;0.002;
20190926_035509;0.484;9.699;-1.616;-0.013;0.008;-0.001;
20190926_035509;0.510;9.507;-1.987;-0.007;0.011;0.001;
20190926_035510;0.412;9.175;-1.527;-0.004;0.012;0.002;
20190926_035510;0.505;9.131;-1.690;0.002;0.008;-0.001;
20190926_035510;0.512;9.735;-1.547;0.009;0.004;-0.008;
20190926_035510;0.529;10.029;-1.662;0.001;0.006;-0.000;
20190926_035510;0.429;9.562;-1.724;-0.003;0.010;0.004;
20190926_035510;0.426;9.218;-1.616;-0.003;0.005;-0.004;
20190926_035510;0.460;9.440;-1.731;-0.004;0.005;-0.006;
20190926_035510;0.644;9.706;-1.810;0.009;0.004;-0.004;
20190926_035510;0.572;9.550;-1.666;-0.003;0.006;-0.004;
20190926_035510;0.587;9.325;-1.999;0.013;0.004;-0.009;
20190926_035511;0.450;9.644;-1.968;-0.007;0.005;-0.001;
20190926_035511;0.496;9.761;-1.860;0.006;0.006;0.005;
20190926_035511;0.304;9.572;-1.966;-0.015;0.010;0.006;
20190926_035511;0.405;9.225;-1.585;-0.014;0.006;0.004;
20190926_035511;0.452;8.995;-1.650;-0.016;0.008;0.006;
20190926_035511;0.769;9.505;-1.714;0.010;0.000;-0.006;
20190926_035511;0.716;9.555;-1.695;-0.002;0.001;-0.004;
20190926_035511;0.541;9.448;-1.793;0.003;0.001;-0.005;
20190926_035511;0.445;9.409;-1.832;0.000;0.006;0.006;
20190926_035512;0.622;9.584;-1.884;0.001;0.001;-0.000;
20190926_035512;0.500;9.888;-1.808;-0.004;0.005;0.001;
20190926_035512;0.546;9.615;-1.762;0.005;0.003;0.002;
20190926_035512;0.433;9.182;-1.745;-0.005;0.003;-0.004;
20190926_035512;0.637;9.519;-1.762;-0.001;-0.003;-0.012;
20190926_035512;0.515;9.919;-1.714;0.008;0.000;-0.004;
20190926_035512;0.603;10.099;-1.669;-0.001;0.003;0.002;
20190926_035512;0.414;9.629;-1.891;-0.002;0.003;0.002;
20190926_035512;0.359;9.086;-1.511;-0.008;0.003;0.006;
20190926_035513;0.438;9.452;-1.571;0.009;0.000;0.005;
20190926_035513;0.476;9.809;-1.616;0.002;0.000;0.004;
20190926_035513;0.472;9.562;-1.609;-0.002;-0.001;-0.001;
20190926_035513;0.658;9.249;-1.853;-0.003;-0.005;-0.005;
20190926_035513;0.644;9.562;-1.887;-0.006;0.001;0.002;
20190926_035513;0.721;9.711;-1.585;0.006;0.000;-0.001;
20190926_035513;0.541;9.297;-1.602;-0.006;0.003;0.006;
20190926_035513;0.515;9.275;-1.554;0.001;-0.002;0.004;
20190926_035513;0.445;9.419;-1.786;0.002;-0.002;-0.001;
20190926_035513;0.685;9.704;-1.616;0.008;0.000;-0.004;
20190926_035514;0.625;9.687;-1.762;0.002;-0.004;-0.006;
20190926_035514;0.754;9.548;-1.884;-0.003;0.001;-0.005;
20190926_035514;0.618;9.622;-1.786;-0.002;-0.004;-0.007;
20190926_035514;0.522;9.795;-1.748;-0.005;-0.001;0.003;
20190926_035514;0.441;9.627;-1.721;-0.007;0.001;0.006;
20190926_035514;0.390;9.086;-1.530;-0.011;0.000;0.009;
20190926_035514;0.476;9.234;-1.535;0.001;-0.003;0.003;
20190926_035514;0.594;9.697;-1.602;0.005;-0.003;0.001;
20190926_035514;0.687;9.881;-1.654;-0.003;0.000;0.001;
20190926_035515;0.792;9.498;-1.532;-0.009;-0.003;-0.001;
20190926_035515;0.678;9.069;-1.314;-0.009;-0.001;0.001;
20190926_035515;0.658;9.361;-1.415;0.014;-0.001;-0.004;
20190926_035515;0.634;9.809;-1.300;0.008;-0.004;-0.006;
20190926_035515;0.630;10.051;-1.518;0.016;-0.002;-0.006;
20190926_035515;0.642;9.546;-1.489;-0.010;-0.002;-0.001;
20190926_035515;0.424;9.402;-1.441;-0.001;0.001;-0.003;
20190926_035515;0.467;9.476;-1.547;0.009;0.003;-0.003;
20190926_035515;0.524;9.519;-1.432;0.005;0.003;0.002;
20190926_035515;0.565;9.704;-1.417;0.003;0.004;-0.001;
20190926_035516;0.589;9.582;-1.537;0.002;-0.002;0.002;
20190926_035516;0.658;9.254;-1.465;-0.001;0.001;0.002;
20190926_035516;0.632;9.404;-1.585;0.009;0.003;-0.005;
20190926_035516;0.634;9.445;-1.520;0.013;0.004;-0.001;
20190926_035516;0.584;9.665;-1.535;0.012;-0.001;-0.005;
20190926_035516;0.548;9.586;-1.516;-0.013;0.001;0.003;
20190926_035516;0.517;9.735;-1.410;-0.015;0.004;0.003;
20190926_035516;0.529;9.752;-1.537;0.001;-0.001;-0.004;
20190926_035516;0.450;9.414;-1.441;-0.013;0.004;0.003;
20190926_035517;0.555;9.151;-1.561;0.009;-0.001;-0.005;
20190926_035517;0.630;9.756;-1.448;-0.002;0.000;-0.001;
20190926_035517;0.675;9.917;-1.645;0.009;0.003;-0.000;
20190926_035517;0.611;9.555;-1.626;-0.005;0.003;0.001;
20190926_035517;0.536;9.263;-1.513;0.009;0.001;-0.005;
20190926_035517;0.512;9.505;-1.367;0.005;0.001;-0.004;
20190926_035517;0.464;9.874;-1.568;0.008;0.001;-0.001;
20190926_035517;0.512;9.697;-1.492;-0.005;0.005;0.003;
20190926_035517;0.541;9.668;-1.571;0.007;-0.002;-0.008;
20190926_035518;0.522;9.500;-1.621;-0.002;0.005;0.001;
20190926_035518;0.536;9.701;-1.645;-0.007;0.004;0.003;
20190926_035518;0.534;9.785;-1.470;-0.006;0.004;0.004;
20190926_035518;0.462;9.747;-1.575;0.014;-0.002;-0.001;
20190926_035518;0.443;9.196;-1.477;-0.045;0.013;0.015;
20190926_035518;0.570;9.129;-1.585;0.015;-0.001;0.003;
20190926_035518;0.625;9.515;-1.736;0.015;-0.003;-0.006;
20190926_035518;0.589;9.776;-1.580;-0.003;0.003;0.003;
20190926_035518;0.596;9.565;-1.650;0.006;-0.002;-0.004;
20190926_035518;0.644;9.404;-1.604;-0.006;0.000;-0.001;
20190926_035519;0.582;9.582;-1.640;0.003;-0.001;-0.007;
20190926_035519;0.587;9.708;-1.573;0.008;-0.003;-0.005;
20190926_035519;0.522;9.572;-1.654;-0.001;0.003;-0.003;
20190926_035519;0.481;9.538;-1.709;0.006;-0.001;-0.008;
20190926_035519;0.548;9.586;-1.626;-0.008;0.003;0.001;
20190926_035519;0.555;9.574;-1.585;-0.005;0.001;0.003;
20190926_035519;0.625;9.510;-1.690;0.014;-0.005;-0.005;
20190926_035519;0.340;9.345;-1.396;-0.036;0.009;0.008;
20190926_035519;0.486;9.304;-1.506;0.011;-0.005;-0.000;
20190926_035519;0.632;9.476;-1.642;0.009;-0.003;0.003;
20190926_035520;0.747;9.730;-1.525;0.002;0.004;0.002;
20190926_035520;0.601;10.096;-1.719;0.031;-0.009;-0.006;
20190926_035520;0.668;9.627;-1.599;-0.045;0.009;0.011;
20190926_035520;0.515;9.218;-1.465;-0.003;-0.002;0.001;
20190926_035520;0.524;9.261;-1.573;0.009;-0.004;-0.005;
20190926_035520;0.673;9.512;-1.494;-0.007;0.001;0.003;
20190926_035520;0.620;9.661;-1.583;-0.003;-0.002;-0.000;
20190926_035520;0.639;9.658;-1.551;-0.005;0.003;0.002;
20190926_035520;0.553;9.687;-1.575;0.001;0.000;-0.000;
20190926_035521;0.601;9.601;-1.599;-0.001;-0.001;-0.004;
20190926_035521;0.496;9.421;-1.549;-0.003;-0.001;0.001;
20190926_035521;0.582;9.321;-1.506;-0.005;-0.001;0.004;
20190926_035521;0.615;9.404;-1.633;0.007;-0.005;0.002;
20190926_035521;0.560;9.735;-1.590;0.000;-0.002;0.002;
20190926_035521;0.546;9.843;-1.616;-0.004;-0.003;0.002;
20190926_035521;0.582;9.486;-1.571;-0.011;-0.001;0.005;
