Timestamp;Accel_x;Accel_y;Accel_z;Gyro_x;Gyro_y;Gyro_z;
20190925_192447;-0.773;5.547;6.208;0.339;0.388;-0.131;
20190925_192448;-1.140;5.758;6.812;0.035;-0.101;-0.035;
20190925_192448;-0.136;6.754;7.659;0.198;-0.612;0.155;
20190925_192448;-1.192;5.904;5.150;0.858;-1.570;0.903;
20190925_192448;3.112;9.632;6.589;0.608;-0.332;1.740;
20190925_192448;7.654;6.529;4.156;1.460;0.038;3.117;
20190925_192448;7.381;3.622;1.360;3.745;-1.296;0.294;
20190925_192448;6.476;7.499;3.290;0.833;0.346;0.615;
20190925_192448;7.764;9.148;-1.396;2.143;0.152;-0.678;
20190925_192448;9.483;4.551;-1.911;1.808;0.245;0.971;
20190925_192448;4.932;4.329;-3.424;1.187;-0.855;-0.007;
20190925_192449;7.676;6.764;-2.794;0.856;0.891;0.530;
20190925_192449;6.539;7.487;-2.964;0.233;-0.255;-0.251;
20190925_192449;5.811;5.547;-3.926;1.153;-0.264;-0.794;
20190925_192449;6.663;6.050;-3.996;0.146;-0.535;-0.543;
20190925_192449;4.295;6.352;-5.181;0.257;-1.023;-0.644;
20190925_192449;4.681;5.322;-4.460;-0.732;-0.366;-0.417;
20190925_192449;2.686;7.666;-2.631;0.842;-1.185;-1.527;
20190925_192449;4.221;7.910;-4.911;-0.269;-0.069;0.454;
20190925_192449;1.666;9.328;-2.701;-0.822;-0.446;-0.239;
20190925_192450;1.714;10.209;-2.986;0.028;-0.070;-0.077;
20190925_192450;2.753;8.531;-2.670;0.034;0.187;0.057;
20190925_192450;1.946;8.780;-3.247;0.162;0.283;-0.182;
20190925_192450;2.356;8.382;-2.265;-0.093;-0.122;-0.586;
20190925_192450;-1.051;9.340;-4.243;0.160;-0.024;-0.708;
20190925_192450;1.331;9.210;-3.103;-0.188;0.172;0.103;
20190925_192450;1.650;9.668;-2.473;-0.104;0.338;-0.003;
20190925_192450;0.852;9.225;-2.231;-0.078;0.121;0.020;
20190925_192450;0.816;9.855;0.939;-1.036;-0.233;-0.290;
20190925_192451;1.999;9.007;-3.328;-0.114;0.107;-0.108;
20190925_192451;1.233;9.440;0.711;-0.483;0.010;-0.058;
20190925_192451;1.154;9.364;-1.283;-0.045;0.043;0.004;
20190925_192451;0.601;9.546;-0.951;0.094;0.005;0.014;
20190925_192451;1.544;9.155;-0.426;-0.272;-0.043;0.129;
20190925_192451;1.226;8.830;-0.187;-0.276;0.231;-0.662;
20190925_192451;-0.151;9.783;-1.683;-0.109;-0.009;-0.476;
20190925_192451;0.462;9.108;-1.697;-0.050;-0.060;-0.130;
20190925_192451;-0.555;9.292;-1.664;-0.156;-0.008;0.010;
20190925_192452;-0.455;9.606;-1.489;0.002;-0.004;-0.012;
20190925_192452;-0.692;9.385;-1.803;0.001;0.046;-0.039;
20190925_192452;-0.050;8.705;-1.671;-0.007;0.039;0.082;
20190925_192452;-1.049;9.752;-1.765;0.026;0.051;-0.028;
20190925_192452;-1.106;9.455;-1.796;0.060;0.066;0.051;
20190925_192452;0.587;9.242;-1.867;0.002;-0.040;0.289;
20190925_192452;-0.299;9.402;-2.028;0.221;0.151;0.211;
20190925_192452;0.479;9.311;-2.514;0.166;0.083;0.121;
20190925_192452;0.551;9.170;-1.980;-0.127;-0.010;0.002;
20190925_192452;0.345;9.594;-2.555;0.012;-0.018;-0.076;
20190925_192453;-0.187;9.029;-2.210;-0.041;-0.029;-0.202;
20190925_192453;0.572;9.498;-2.047;-0.120;-0.111;0.220;
20190925_192453;0.311;9.555;-2.473;0.023;0.002;-0.052;
20190925_192453;0.268;9.323;-2.411;0.090;0.024;0.001;
20190925_192453;0.910;9.127;-2.382;-0.036;-0.037;-0.044;
20190925_192453;1.197;9.373;-1.999;0.059;0.018;-0.076;
20190925_192453;0.673;8.823;-2.674;0.140;0.111;0.088;
20190925_192453;-0.175;9.364;-2.179;-0.008;0.047;0.236;
20190925_192453;2.691;9.342;-2.547;0.122;-0.049;0.243;
20190925_192454;0.522;9.196;-2.205;-0.114;0.011;-0.015;
20190925_192454;0.546;8.820;-1.997;-0.020;0.033;0.261;
20190925_192454;1.664;8.916;-2.258;0.011;-0.020;0.267;
20190925_192454;-0.113;9.091;-2.265;-0.235;-0.013;-0.234;
20190925_192454;0.402;8.789;-1.927;0.001;0.052;0.042;
20190925_192454;0.290;9.371;-2.512;-0.055;0.006;0.071;
20190925_192454;0.836;9.663;-1.836;-0.169;-0.025;-0.044;
20190925_192454;1.199;9.127;-1.822;-0.007;0.022;0.018;
20190925_192454;2.160;7.997;-1.609;0.012;0.020;-0.205;
20190925_192454;-1.343;11.341;-2.377;0.017;-0.022;-0.317;
20190925_192455;0.345;9.474;-1.812;-0.004;0.017;0.155;
20190925_192455;0.819;9.527;-1.865;0.036;0.005;0.096;
20190925_192455;0.761;10.003;-1.841;0.020;-0.032;0.252;
20190925_192455;0.694;9.534;-1.841;-0.037;-0.024;0.010;
20190925_192455;1.434;10.362;-1.915;0.038;-0.012;0.200;
20190925_192455;0.979;9.603;-1.908;0.016;0.026;-0.021;
20190925_192455;0.699;9.534;-2.023;-0.036;-0.003;-0.030;
20190925_192455;0.769;9.426;-1.834;-0.016;0.011;-0.022;
20190925_192455;0.620;9.519;-1.755;-0.015;0.006;0.008;
20190925_192456;0.771;9.323;-1.700;-0.004;0.002;0.016;
20190925_192456;0.804;9.629;-1.664;-0.019;0.004;-0.018;
20190925_192456;0.895;9.383;-1.666;-0.003;0.013;-0.018;
20190925_192456;1.319;7.745;-1.621;-0.002;0.030;-0.241;
20190925_192456;0.534;9.321;-1.750;-0.011;-0.004;0.009;
20190925_192456;0.742;9.060;-1.712;0.002;0.009;-0.007;
20190925_192456;-0.172;9.926;-1.867;0.080;0.014;-0.339;
20190925_192456;-0.606;9.685;-1.714;0.046;0.012;0.040;
20190925_192456;0.151;9.572;-1.683;-0.004;-0.018;0.165;
20190925_192456;0.601;9.335;-1.808;0.030;0.019;-0.042;
20190925_192457;0.373;9.634;-1.693;-0.002;0.015;-0.035;
20190925_192457;0.582;9.088;-2.121;0.167;0.011;-0.022;
20190925_192457;0.431;9.237;-1.635;-0.035;0.002;-0.007;
20190925_192457;0.407;9.495;-1.978;-0.012;0.008;-0.000;
20190925_192457;0.563;9.321;-1.757;0.015;-0.001;0.001;
20190925_192457;0.486;9.670;-1.954;-0.047;0.007;0.005;
20190925_192457;0.297;8.914;-1.721;0.060;-0.010;-0.008;
20190925_192457;0.354;9.431;-2.339;0.102;0.020;-0.010;
20190925_192457;0.378;9.752;-2.057;-0.076;0.020;0.006;
20190925_192458;0.259;9.225;-1.927;0.007;0.003;-0.001;
20190925_192458;0.283;9.392;-1.822;-0.008;0.011;0.022;
20190925_192458;0.201;9.263;-1.736;0.005;0.017;-0.012;
20190925_192458;0.472;9.131;-1.788;-0.002;0.009;-0.000;
20190925_192458;0.472;9.524;-2.066;0.013;0.004;-0.001;
20190925_192458;0.230;9.131;-1.891;-0.021;0.006;-0.003;
20190925_192458;0.261;9.438;-2.083;-0.027;0.002;0.025;
20190925_192458;0.668;9.615;-1.688;-0.117;0.043;0.019;
20190925_192458;0.685;9.354;-1.980;0.091;-0.025;0.036;
20190925_192458;0.826;9.316;-2.033;0.003;-0.006;0.007;
20190925_192459;0.642;9.407;-1.994;0.005;0.001;0.003;
20190925_192459;0.476;9.352;-1.705;0.002;0.002;0.001;
20190925_192459;0.529;9.136;-1.877;0.004;0.007;-0.002;
20190925_192459;0.572;9.371;-2.069;0.034;-0.001;0.006;
20190925_192459;0.539;9.335;-1.827;-0.017;0.005;-0.000;
20190925_192459;0.373;9.414;-1.942;0.013;-0.007;0.014;
20190925_192459;-0.012;9.431;-1.800;0.016;0.006;0.008;
20190925_192459;0.208;9.340;-1.858;-0.033;-0.005;0.003;
20190925_192459;0.290;9.225;-1.863;0.030;0.001;0.066;
20190925_192500;0.608;9.457;-1.994;0.004;0.008;-0.010;
20190925_192500;0.747;9.538;-2.047;0.028;-0.011;-0.007;
20190925_192500;0.589;9.388;-2.112;0.005;-0.018;-0.015;
20190925_192500;0.591;9.464;-2.009;-0.024;0.007;0.024;
20190925_192500;0.812;9.189;-1.920;-0.007;-0.018;0.066;
20190925_192500;1.262;9.172;-1.714;-0.234;-0.056;0.418;
20190925_192500;1.080;9.064;-1.681;0.016;0.078;0.035;
20190925_192500;0.970;9.656;-2.023;0.067;0.031;0.114;
20190925_192500;1.140;9.117;-2.160;-0.023;-0.022;0.158;
20190925_192500;1.159;9.620;-1.899;0.052;0.011;-0.034;
20190925_192501;1.053;9.098;-2.184;0.045;-0.081;0.006;
20190925_192501;1.041;9.136;-1.913;-0.175;-0.109;0.063;
20190925_192501;1.334;9.268;-1.803;0.011;0.047;-0.070;
20190925_192501;1.269;9.203;-1.975;0.009;0.056;0.136;
20190925_192501;1.238;9.404;-2.030;0.045;0.063;0.071;
20190925_192501;1.360;8.768;-2.021;0.009;-0.065;-0.032;
20190925_192501;0.237;9.637;-2.902;0.346;0.062;-0.521;
20190925_192501;0.455;9.160;-2.073;-0.024;0.074;-0.245;
20190925_192501;1.065;9.474;-2.452;-0.038;-0.010;0.237;
20190925_192502;1.125;9.831;-2.497;-0.013;-0.003;-0.084;
20190925_192502;2.492;9.136;-2.028;0.069;0.005;-0.312;
20190925_192502;0.297;8.981;-2.260;0.010;0.024;-0.016;
20190925_192502;1.188;9.378;-2.322;-0.116;0.077;0.232;
20190925_192502;1.087;9.177;-2.253;-0.113;0.015;-0.038;
20190925_192502;0.812;9.436;-2.011;-0.044;0.053;-0.102;
20190925_192502;0.510;9.845;-2.021;0.047;0.013;-0.111;
20190925_192502;0.227;9.196;-2.011;-0.028;-0.009;-0.299;
20190925_192502;0.177;9.354;-2.162;-0.014;0.019;0.035;
20190925_192502;0.225;8.830;-2.021;0.007;-0.026;-0.124;
20190925_192503;-0.783;4.506;-1.152;0.008;-0.037;0.001;
20190925_192503;2.818;11.461;-5.581;0.569;-0.076;1.026;
20190925_192503;0.527;8.950;-2.064;-0.377;-0.001;-0.517;
20190925_192503;-0.136;9.869;-2.370;-0.008;0.003;-0.173;
20190925_192503;-0.007;9.459;-1.956;-0.177;-0.029;-0.031;
20190925_192503;-0.342;10.807;-2.140;-0.057;-0.019;-0.059;
20190925_192503;-0.017;9.304;-2.212;-0.070;-0.038;0.338;
20190925_192503;0.622;11.392;-2.361;-0.024;-0.022;0.080;
20190925_192503;0.232;9.802;-2.253;0.074;0.007;-0.096;
20190925_192504;0.591;9.060;-1.997;-0.057;-0.004;0.087;
20190925_192504;0.711;9.220;-1.939;-0.015;0.033;0.150;
20190925_192504;0.663;9.402;-1.946;0.040;0.047;0.194;
20190925_192504;0.970;9.881;-2.291;0.196;0.020;-0.539;
20190925_192504;0.318;9.069;-1.875;-0.137;-0.041;0.067;
20190925_192504;0.263;9.227;-1.784;0.018;0.015;0.021;
20190925_192504;0.292;9.237;-1.896;-0.053;-0.014;0.008;
20190925_192504;1.391;9.922;-2.167;0.099;-0.005;0.451;
20190925_192504;0.675;9.179;-1.997;-0.040;-0.018;-0.000;
20190925_192504;0.575;9.457;-1.889;-0.066;0.001;-0.005;
20190925_192505;0.546;9.483;-2.514;0.151;-0.027;-0.003;
20190925_192505;0.737;9.275;-2.279;0.019;-0.003;0.004;
20190925_192505;0.661;9.440;-2.227;-0.018;-0.001;0.005;
20190925_192505;0.673;9.297;-2.174;-0.001;0.003;0.001;
20190925_192505;0.721;9.416;-2.100;0.019;-0.005;-0.015;
20190925_192505;0.527;9.246;-2.128;-0.015;0.006;-0.050;
20190925_192505;0.455;9.258;-2.265;0.024;-0.002;-0.001;
20190925_192505;0.419;9.390;-2.128;0.003;-0.004;0.023;
20190925_192505;0.192;9.354;-2.095;-0.030;0.006;-0.191;
20190925_192506;0.268;9.239;-2.140;0.009;-0.002;0.014;
20190925_192506;0.249;9.558;-2.193;0.013;0.004;0.005;
20190925_192506;0.280;9.486;-2.385;0.035;-0.002;0.010;
20190925_192506;0.215;9.323;-2.224;0.000;0.003;0.008;
20190925_192506;0.330;9.299;-2.004;-0.017;0.001;0.003;
20190925_192506;0.215;9.074;-1.990;-0.003;0.001;0.005;
20190925_192506;0.223;9.380;-2.243;0.009;0.001;0.001;
20190925_192506;0.225;9.256;-2.255;-0.003;0.001;-0.003;
20190925_192506;0.165;9.512;-2.444;-0.006;-0.006;-0.009;
20190925_192506;0.266;9.519;-2.234;-0.044;0.003;0.005;
20190925_192507;0.309;9.531;-1.978;-0.049;-0.003;-0.005;
20190925_192507;0.160;9.469;-3.041;0.195;0.001;-0.000;
20190925_192507;0.261;9.474;-2.447;-0.016;-0.001;0.004;
20190925_192507;0.242;9.321;-2.325;-0.002;0.002;0.004;
20190925_192507;0.290;9.237;-2.078;-0.009;0.001;0.004;
20190925_192507;0.373;9.515;-2.152;-0.013;-0.001;0.002;
20190925_192507;0.275;9.234;-2.133;-0.005;0.001;0.001;
20190925_192507;0.297;9.371;-2.260;-0.004;0.001;0.003;
20190925_192507;0.211;9.323;-2.330;-0.004;0.003;0.004;
20190925_192507;0.402;9.206;-2.145;-0.002;0.002;0.004;
20190925_192508;0.294;9.438;-2.265;0.004;0.001;0.002;
20190925_192508;0.364;9.309;-2.188;-0.007;-0.002;0.003;
20190925_192508;0.294;9.357;-2.251;0.010;0.001;0.003;
20190925_192508;0.393;9.237;-2.097;0.014;-0.001;0.003;
20190925_192508;0.235;9.225;-1.990;-0.028;0.001;0.004;
20190925_192508;0.318;9.376;-2.246;-0.014;-0.001;0.003;
20190925_192508;0.148;9.256;-2.325;-0.004;0.001;0.004;
20190925_192508;0.072;9.189;-2.289;0.009;0.003;0.003;
20190925_192508;0.206;9.294;-2.172;0.011;0.002;0.003;
20190925_192509;0.328;9.218;-2.188;-0.013;0.004;0.005;
20190925_192509;0.299;9.431;-2.286;0.014;-0.003;0.002;
20190925_192509;0.378;9.491;-2.193;-0.014;-0.001;0.004;
20190925_192509;0.292;9.431;-2.100;-0.018;-0.001;0.004;
20190925_192509;0.359;9.495;-2.138;-0.008;-0.001;0.004;
20190925_192509;0.338;9.294;-2.184;0.001;0.001;-0.000;
20190925_192509;0.381;9.366;-2.100;0.010;-0.002;0.003;
20190925_192509;0.364;9.196;-2.071;-0.011;-0.002;0.005;
20190925_192509;0.555;9.357;-2.049;-0.024;0.001;0.006;
20190925_192510;0.278;9.215;-2.083;-0.004;-0.003;0.004;
20190925_192510;0.156;9.328;-2.172;-0.008;0.002;0.002;
20190925_192510;0.350;9.325;-2.310;0.014;-0.001;0.002;
20190925_192510;0.227;9.495;-2.097;-0.001;0.002;0.001;
20190925_192510;0.275;9.282;-2.239;0.008;0.002;0.003;
20190925_192510;0.350;9.673;-2.325;0.012;-0.001;-0.000;
20190925_192510;0.299;9.443;-2.198;-0.009;0.002;0.002;
20190925_192510;0.534;9.328;-2.274;0.003;0.002;0.002;
20190925_192510;0.378;9.155;-2.301;0.000;0.001;0.005;
20190925_192510;0.335;9.237;-2.057;0.003;0.002;0.004;
20190925_192511;0.314;9.270;-2.162;0.002;-0.001;0.003;
20190925_192511;0.242;9.268;-2.054;-0.001;0.001;0.005;
20190925_192511;0.263;9.275;-2.133;0.010;-0.001;0.004;
20190925_192511;0.299;9.218;-2.241;0.013;-0.001;0.004;
20190925_192511;0.271;9.088;-2.274;0.000;0.001;0.004;
20190925_192511;0.467;9.488;-2.416;0.015;-0.003;0.003;
20190925_192511;0.429;9.416;-2.162;0.011;-0.001;0.003;
20190925_192511;0.400;9.567;-2.377;-0.007;-0.003;0.002;
20190925_192511;0.366;9.316;-2.081;0.018;-0.002;-0.000;
20190925_192512;0.182;9.263;-2.014;0.021;0.001;0.002;
20190925_192512;0.196;9.189;-2.289;-0.004;-0.001;0.003;
20190925_192512;0.122;9.388;-2.425;0.016;-0.001;0.004;
20190925_192512;0.347;9.124;-2.121;-0.009;0.001;0.004;
20190925_192512;0.158;9.541;-2.200;0.007;-0.001;0.002;
20190925_192512;0.156;9.562;-2.428;0.003;0.001;0.002;
20190925_192512;0.230;9.498;-2.301;-0.004;0.001;0.003;
20190925_192512;0.452;9.414;-2.164;-0.008;-0.001;0.006;
20190925_192512;0.421;9.041;-2.076;0.007;0.001;0.004;
20190925_192512;0.551;9.232;-2.308;0.002;-0.001;0.003;
20190925_192513;0.417;9.105;-2.241;-0.007;0.001;0.004;
20190925_192513;0.294;9.361;-2.351;0.011;0.001;0.003;
20190925_192513;0.297;9.510;-2.361;0.014;-0.001;0.002;
20190925_192513;0.376;9.304;-2.507;-0.008;0.001;0.003;
20190925_192513;0.347;9.392;-2.614;0.016;-0.001;0.001;
20190925_192513;0.419;9.380;-2.476;0.013;0.002;0.003;
20190925_192513;0.271;9.062;-2.265;-0.007;0.002;0.004;
20190925_192513;0.311;9.414;-2.234;0.007;0.003;0.002;
20190925_192513;0.414;9.076;-2.188;0.019;0.003;0.002;
20190925_192513;0.328;9.323;-2.176;0.027;0.003;0.002;
20190925_192514;0.218;9.457;-2.351;0.000;0.003;0.002;
20190925_192514;0.414;9.225;-2.231;-0.011;0.003;0.006;
20190925_192514;0.388;9.172;-2.277;-0.001;0.002;0.005;
20190925_192514;0.364;9.160;-2.286;0.014;0.003;0.004;
20190925_192514;0.182;9.182;-2.354;0.012;0.002;0.002;
20190925_192514;0.113;9.366;-2.392;0.013;0.004;0.001;
20190925_192514;0.316;9.290;-2.401;-0.002;0.004;0.003;
20190925_192514;0.373;9.292;-2.406;0.004;0.001;0.001;
20190925_192514;0.402;9.519;-2.485;-0.001;0.001;0.001;
20190925_192515;0.215;9.014;-2.294;-0.017;0.004;0.001;
20190925_192515;0.297;9.208;-2.274;-0.009;0.004;0.001;
20190925_192515;0.273;9.158;-2.418;-0.009;0.004;0.001;
20190925_192515;0.376;9.380;-2.485;0.008;0.002;0.003;
20190925_192515;0.294;9.503;-2.588;0.008;0.003;0.001;
20190925_192515;0.230;9.261;-2.267;-0.006;0.006;0.003;
20190925_192515;0.254;9.476;-2.442;-0.005;0.005;0.001;
20190925_192515;0.402;9.251;-2.284;-0.006;0.005;0.005;
20190925_192515;0.321;9.199;-2.229;0.001;0.005;0.003;
20190925_192515;0.103;9.507;-2.286;0.008;0.005;0.001;
20190925_192516;0.211;9.187;-2.346;-0.002;0.006;-0.000;
20190925_192516;0.220;9.301;-2.392;0.015;0.004;-0.001;
20190925_192516;0.441;9.450;-2.406;0.000;0.005;0.003;
20190925_192516;0.342;9.234;-2.346;0.000;0.004;0.002;
20190925_192516;0.215;9.309;-2.351;0.009;0.004;0.001;
20190925_192516;0.256;9.493;-2.538;0.008;0.005;0.002;
20190925_192516;0.170;9.376;-2.277;0.000;0.007;0.003;
20190925_192516;0.364;9.412;-2.207;0.002;0.005;0.004;
20190925_192516;0.158;9.412;-2.342;0.010;0.006;0.001;
20190925_192517;0.256;9.242;-2.253;0.015;0.004;0.001;
20190925_192517;0.271;9.431;-2.370;0.011;0.003;0.002;
20190925_192517;0.254;9.263;-2.105;-0.020;0.007;0.004;
20190925_192517;0.196;9.457;-2.162;-0.023;0.006;0.006;
20190925_192517;0.316;9.127;-2.219;-0.013;0.008;0.005;
20190925_192517;0.500;9.369;-2.289;0.012;0.002;0.004;
20190925_192517;0.488;9.426;-2.188;-0.005;0.004;0.005;
20190925_192517;0.287;9.268;-2.346;-0.003;0.003;0.007;
20190925_192517;0.299;9.201;-2.375;-0.006;0.003;0.005;
20190925_192517;0.340;9.333;-2.301;-0.011;0.006;0.006;
20190925_192518;0.306;9.424;-2.392;0.012;0.004;0.001;
20190925_192518;0.555;9.476;-2.296;0.010;0.004;0.003;
20190925_192518;0.524;9.380;-2.327;-0.005;0.002;0.004;
20190925_192518;0.405;9.299;-2.267;-0.018;0.003;0.005;
20190925_192518;0.424;9.170;-2.260;-0.001;0.002;0.001;
20190925_192518;0.488;9.172;-2.195;0.012;0.002;0.002;
20190925_192518;0.323;9.287;-2.160;0.008;0.004;0.001;
20190925_192518;0.328;9.268;-2.114;-0.005;0.001;0.002;
20190925_192518;0.168;9.201;-2.174;-0.020;0.003;0.005;
20190925_192519;0.287;9.199;-2.236;0.013;0.002;-0.000;
20190925_192519;0.244;9.323;-2.255;0.021;0.005;0.001;
20190925_192519;0.158;9.486;-2.195;-0.001;0.004;0.001;
20190925_192519;0.199;9.548;-2.116;-0.017;0.007;0.005;
20190925_192519;0.139;9.433;-2.258;-0.006;0.004;0.003;
20190925_192519;0.220;9.297;-2.176;-0.013;0.005;0.002;
20190925_192519;0.364;9.234;-2.246;0.001;0.003;0.002;
20190925_192519;0.311;9.206;-2.320;0.009;0.002;0.002;
20190925_192519;0.364;9.218;-2.318;-0.017;0.003;0.004;
20190925_192519;0.491;9.290;-2.217;-0.001;-0.001;0.003;
20190925_192520;0.285;9.483;-2.385;0.026;0.002;-0.000;
20190925_192520;0.208;9.620;-2.229;0.008;0.001;0.002;
20190925_192520;0.175;9.354;-2.277;0.000;0.004;0.003;
20190925_192520;0.357;9.450;-2.291;0.000;0.003;0.003;
20190925_192520;0.318;9.524;-2.270;0.004;0.003;0.005;
20190925_192520;0.381;9.213;-2.093;0.001;0.002;0.003;
20190925_192520;0.318;9.313;-2.138;-0.030;0.002;0.006;
20190925_192520;0.299;8.921;-1.939;0.012;0.004;0.004;
20190925_192520;0.407;9.294;-2.282;-0.013;0.002;0.006;
20190925_192521;0.388;9.256;-2.057;-0.015;0.001;0.005;
20190925_192521;0.412;9.373;-2.337;0.002;-0.002;0.001;
20190925_192521;0.316;9.424;-2.320;0.001;0.002;0.001;
20190925_192521;0.201;9.282;-2.224;-0.004;0.004;0.003;
20190925_192521;0.259;9.412;-2.310;0.007;0.003;0.003;
20190925_192521;0.079;9.412;-2.131;0.009;0.005;0.003;
20190925_192521;0.017;9.462;-2.143;0.003;0.005;-0.000;
20190925_192521;0.196;9.450;-2.195;-0.001;0.005;0.003;
20190925_192521;0.146;9.347;-2.148;-0.003;0.003;0.003;
20190925_192521;0.261;9.210;-2.128;-0.012;0.003;0.004;
20190925_192522;0.467;8.887;-2.011;-0.006;0.002;0.003;
20190925_192522;0.383;9.304;-2.241;0.021;-0.002;-0.001;
20190925_192522;0.280;9.620;-2.370;-0.003;0.001;-0.000;
20190925_192522;0.204;9.685;-2.306;0.010;-0.001;0.002;
20190925_192522;0.242;9.416;-2.239;-0.011;0.002;0.004;
20190925_192522;0.124;9.263;-2.174;-0.001;0.001;0.002;
20190925_192522;0.048;9.143;-2.131;0.002;0.001;-0.000;
20190925_192522;0.144;9.256;-2.241;0.001;0.003;0.004;
20190925_192522;0.218;9.297;-2.255;0.005;0.002;0.004;
20190925_192523;0.362;9.390;-2.289;0.003;0.001;0.004;
20190925_192523;0.220;9.577;-2.339;0.011;0.001;0.001;
20190925_192523;0.373;9.749;-2.401;0.009;-0.004;0.001;
20190925_192523;0.273;9.081;-2.078;-0.016;0.003;0.002;
20190925_192523;0.266;9.105;-2.191;0.019;0.002;0.003;
20190925_192523;0.201;9.290;-2.315;-0.006;0.002;0.004;
20190925_192523;0.460;9.170;-2.322;-0.004;-0.001;0.003;
20190925_192523;0.359;9.512;-2.251;0.005;0.001;0.001;
20190925_192523;0.393;9.512;-2.274;0.010;-0.002;0.002;
20190925_192523;0.306;9.567;-2.231;0.010;-0.001;0.001;
20190925_192524;0.452;9.275;-2.210;-0.002;0.001;0.006;
20190925_192524;0.388;9.167;-2.227;-0.001;0.002;0.005;
20190925_192524;0.306;9.167;-2.263;0.010;-0.002;0.002;
20190925_192524;0.354;9.352;-2.231;-0.001;0.001;0.002;
20190925_192524;0.287;9.409;-2.105;0.000;0.002;0.004;
20190925_192524;0.323;9.584;-2.181;-0.009;0.003;0.006;
20190925_192524;0.364;9.512;-2.116;-0.001;0.002;0.006;
20190925_192524;0.409;9.445;-2.193;0.001;0.002;0.003;
20190925_192524;0.335;9.297;-2.198;-0.007;0.001;0.003;
20190925_192525;0.256;9.151;-2.198;-0.011;0.003;0.004;
20190925_192525;0.385;9.115;-2.040;-0.004;0.002;0.006;
20190925_192525;0.309;9.318;-2.229;0.010;-0.002;0.004;
20190925_192525;0.350;9.371;-2.198;0.016;0.002;0.005;
20190925_192525;0.297;9.479;-2.356;0.016;-0.001;0.005;
20190925_192525;0.421;9.457;-2.387;-0.004;0.002;0.007;
20190925_192525;0.472;9.203;-2.186;-0.002;0.002;0.007;
20190925_192525;0.512;9.361;-2.169;0.009;0.001;0.004;
20190925_192525;0.235;9.282;-2.217;-0.006;-0.003;0.003;
20190925_192525;0.369;9.369;-2.322;0.002;-0.001;0.002;
20190925_192526;0.206;9.402;-2.205;0.010;0.001;-0.000;
20190925_192526;0.196;9.383;-2.236;0.003;0.002;0.003;
20190925_192526;0.165;9.275;-2.133;-0.008;0.005;0.005;
20190925_192526;0.378;9.072;-2.169;-0.012;0.002;0.006;
20190925_192526;0.266;9.165;-2.265;0.002;0.002;0.002;
20190925_192526;0.237;9.321;-2.231;-0.005;0.003;0.004;
20190925_192526;0.218;9.361;-2.351;0.000;0.001;0.004;
20190925_192526;0.256;9.340;-2.320;0.024;0.001;0.002;
20190925_192526;0.342;9.601;-2.449;-0.001;-0.001;0.004;
20190925_192526;0.287;9.311;-2.301;-0.008;0.003;0.002;
20190925_192527;0.412;9.345;-2.181;0.008;0.001;0.002;
20190925_192527;0.326;9.333;-2.243;-0.002;0.003;0.002;
20190925_192527;0.321;9.357;-2.215;0.008;-0.001;0.002;
20190925_192527;0.266;9.438;-2.176;0.007;0.004;0.001;
20190925_192527;0.302;9.218;-2.258;-0.012;0.004;0.004;
20190925_192527;0.287;9.376;-2.279;0.003;0.001;0.003;
20190925_192527;0.330;9.273;-2.207;0.007;0.001;0.004;
20190925_192527;0.460;9.230;-2.277;-0.006;-0.001;0.005;
20190925_192527;0.352;9.282;-2.291;-0.014;0.002;0.003;
20190925_192528;0.352;9.340;-2.188;-0.004;0.001;0.004;
20190925_192528;0.227;9.378;-2.327;0.001;-0.001;0.003;
20190925_192528;0.254;9.383;-2.097;-0.003;-0.001;0.004;
20190925_192528;0.314;9.148;-2.229;-0.002;-0.002;0.005;
20190925_192528;0.215;9.163;-2.342;-0.006;-0.002;0.004;
20190925_192528;0.330;9.345;-2.322;-0.001;-0.002;0.004;
20190925_192528;0.263;9.227;-2.344;0.008;-0.003;0.004;
20190925_192528;0.498;9.330;-2.286;0.007;-0.003;0.004;
20190925_192528;0.400;9.431;-2.377;0.003;-0.002;0.004;
20190925_192528;0.397;9.321;-2.239;0.000;-0.003;0.004;
20190925_192529;0.311;9.464;-2.425;0.002;-0.001;0.003;
20190925_192529;0.290;9.258;-2.306;-0.004;0.002;0.002;
20190925_192529;0.438;9.488;-2.358;0.011;-0.001;0.002;
20190925_192529;0.273;9.426;-2.265;0.002;0.003;0.003;
20190925_192529;0.326;9.424;-2.265;-0.022;-0.001;0.005;
20190925_192529;0.357;9.448;-2.064;0.001;0.001;0.003;
20190925_192529;0.347;9.268;-2.095;-0.004;0.002;0.005;
20190925_192529;0.390;9.321;-2.133;-0.016;0.002;0.006;
20190925_192529;0.297;9.122;-2.042;-0.014;0.002;0.005;
20190925_192530;0.311;9.313;-2.064;-0.014;0.003;0.005;
20190925_192530;0.414;9.306;-2.172;-0.015;0.001;0.005;
20190925_192530;0.357;9.275;-2.267;-0.006;0.002;0.004;
20190925_192530;0.326;9.304;-2.320;-0.004;-0.001;0.004;
20190925_192530;0.285;9.328;-2.365;0.020;-0.001;-0.001;
20190925_192530;0.314;9.333;-2.375;0.021;-0.001;0.001;
20190925_192530;0.220;9.440;-2.337;0.007;0.002;0.001;
20190925_192530;0.311;9.258;-2.136;-0.002;0.002;0.003;
20190925_192530;0.182;9.239;-2.145;0.002;0.002;0.003;
20190925_192530;0.292;9.249;-2.195;-0.012;0.003;0.003;
20190925_192531;0.184;9.313;-2.234;-0.018;0.003;0.004;
20190925_192531;0.357;9.318;-2.291;-0.005;0.003;0.003;
20190925_192531;0.225;9.335;-2.440;0.009;-0.001;0.001;
20190925_192531;0.251;9.388;-2.440;0.014;0.002;-0.000;
20190925_192531;0.302;9.251;-2.416;0.003;0.002;0.001;
20190925_192531;0.287;9.239;-2.406;0.007;-0.001;0.002;
20190925_192531;0.306;9.146;-2.346;0.026;0.002;-0.001;
20190925_192531;0.326;9.517;-2.533;0.020;0.005;-0.000;
20190925_192531;0.338;9.354;-2.368;-0.016;0.005;0.002;
20190925_192532;0.352;9.261;-2.282;-0.012;0.003;0.002;
20190925_192532;0.347;9.220;-2.418;-0.017;0.003;0.004;
20190925_192532;0.256;9.139;-2.258;0.009;0.003;0.002;
20190925_192532;0.304;9.328;-2.308;0.002;0.005;0.001;
20190925_192532;0.237;9.505;-2.404;0.003;0.003;0.002;
20190925_192532;0.287;9.359;-2.310;-0.002;0.005;0.003;
20190925_192532;0.271;9.474;-2.255;-0.003;0.003;0.004;
20190925_192532;0.345;9.230;-2.296;-0.004;0.004;0.004;
20190925_192532;0.426;9.213;-2.351;0.003;0.002;0.004;
20190925_192532;0.414;9.141;-2.342;0.003;0.002;0.003;
20190925_192533;0.354;9.237;-2.358;0.011;-0.001;0.001;
20190925_192533;0.350;9.201;-2.365;-0.002;0.001;0.003;
20190925_192533;0.342;9.227;-2.452;0.008;0.001;-0.000;
20190925_192533;0.335;9.325;-2.404;-0.004;0.001;0.002;
20190925_192533;0.388;9.222;-2.444;0.001;0.001;0.003;
20190925_192533;0.328;9.397;-2.406;0.004;-0.002;0.002;
20190925_192533;0.371;9.385;-2.452;0.008;0.002;0.001;
20190925_192533;0.321;9.392;-2.351;-0.002;0.004;0.002;
20190925_192533;0.208;9.366;-2.437;-0.001;0.003;0.001;
20190925_192534;0.146;8.988;-2.327;-0.015;0.005;0.004;
20190925_192534;0.180;8.837;-2.131;-0.002;0.004;0.003;
20190925_192534;0.187;9.072;-2.440;0.012;0.002;0.002;
20190925_192534;0.213;9.479;-2.571;0.008;0.001;0.002;
20190925_192534;0.259;9.536;-2.404;-0.004;-0.001;0.003;
20190925_192534;0.321;9.395;-2.540;-0.001;0.003;0.003;
20190925_192534;0.302;9.510;-2.641;-0.002;0.002;0.003;
20190925_192534;0.462;9.232;-2.263;-0.008;0.001;0.005;
20190925_192534;0.424;9.187;-2.258;-0.004;0.002;0.004;
20190925_192534;0.417;9.225;-2.315;-0.005;0.002;0.002;
20190925_192535;0.383;9.366;-2.318;-0.007;0.004;0.003;
20190925_192535;0.359;9.244;-2.222;-0.002;0.005;0.003;
20190925_192535;0.354;9.321;-2.607;0.019;0.003;0.007;
20190925_192535;0.316;9.242;-2.286;-0.018;0.003;0.004;
20190925_192535;0.333;9.179;-2.219;-0.020;0.003;0.004;
20190925_192535;0.409;9.232;-2.274;-0.015;0.002;0.004;
20190925_192535;0.335;9.172;-2.291;-0.016;0.003;0.005;
20190925_192535;0.369;9.364;-2.375;0.000;0.004;0.002;
20190925_192535;0.412;9.452;-2.404;0.000;0.001;0.003;
20190925_192536;0.309;9.225;-2.394;0.004;0.002;-0.000;
20190925_192536;0.227;9.383;-2.423;0.002;0.004;0.001;
20190925_192536;0.316;9.199;-2.306;0.007;0.003;0.001;
20190925_192536;0.259;9.110;-2.356;0.002;0.005;0.003;
20190925_192536;0.287;9.208;-2.342;-0.011;0.003;0.005;
20190925_192536;0.321;9.266;-2.231;0.008;0.003;0.003;
20190925_192536;0.314;9.278;-2.349;0.026;0.003;0.002;
20190925_192536;0.287;9.438;-2.540;0.032;0.002;0.001;
20190925_192536;0.273;9.237;-2.342;0.004;0.002;0.001;
20190925_192536;0.417;9.167;-2.148;-0.013;0.002;0.005;
20190925_192537;0.350;9.208;-2.354;-0.023;0.004;0.005;
20190925_192537;0.302;9.414;-2.476;0.002;0.003;-0.000;
20190925_192537;0.290;9.361;-2.365;-0.015;0.003;0.002;
20190925_192537;0.235;9.194;-2.370;0.016;0.002;0.001;
20190925_192537;0.278;9.395;-2.473;0.005;0.003;0.004;
20190925_192537;0.247;9.160;-2.392;0.007;0.002;0.005;
20190925_192537;0.287;9.311;-2.409;0.010;0.001;0.003;
20190925_192537;0.407;9.309;-2.385;-0.002;-0.001;0.004;
20190925_192537;0.493;9.323;-2.342;-0.004;0.002;0.005;
20190925_192538;0.426;9.292;-2.363;0.001;0.002;0.005;
20190925_192538;0.294;9.424;-2.327;0.008;0.001;0.002;
20190925_192538;0.366;9.371;-2.320;0.007;0.001;-0.000;
20190925_192538;0.306;9.392;-2.354;-0.012;0.002;0.002;
20190925_192538;0.357;9.237;-2.246;-0.003;0.003;0.002;
20190925_192538;0.381;9.359;-2.181;0.002;0.005;0.003;
20190925_192538;0.362;9.285;-2.255;0.000;0.004;0.001;
20190925_192538;0.321;9.433;-2.423;0.005;0.002;0.001;
20190925_192538;0.273;9.280;-2.339;-0.001;0.004;0.004;
20190925_192539;0.225;9.328;-2.253;-0.005;0.004;0.005;
20190925_192539;0.172;9.242;-2.145;-0.021;0.005;0.006;
20190925_192539;0.220;9.222;-2.231;-0.001;0.003;0.003;
20190925_192539;0.268;9.424;-2.444;0.002;0.003;0.004;
20190925_192539;0.354;9.335;-2.440;0.009;0.002;0.005;
20190925_192539;0.347;9.378;-2.423;0.003;0.001;0.005;
20190925_192539;0.292;9.448;-2.406;0.023;-0.001;0.002;
20190925_192539;0.321;9.517;-2.497;0.009;0.002;0.002;
20190925_192539;0.338;9.431;-2.416;-0.001;0.002;0.003;
20190925_192539;0.335;9.033;-2.354;-0.021;0.003;0.007;
20190925_192540;0.395;9.153;-2.112;0.000;0.003;0.005;
20190925_192540;0.441;9.064;-2.198;-0.012;0.002;0.005;
20190925_192540;0.515;9.069;-2.210;0.016;0.001;0.002;
20190925_192540;0.419;9.491;-2.239;0.010;-0.001;0.003;
20190925_192540;0.347;9.328;-2.274;-0.001;0.003;0.003;
20190925_192540;0.333;9.730;-2.466;0.020;0.003;0.002;
20190925_192540;0.359;9.402;-2.215;0.023;0.002;-0.002;
20190925_192540;0.419;9.266;-2.298;-0.009;0.003;0.001;
20190925_192540;0.352;9.048;-2.054;-0.013;-0.001;0.001;
20190925_192541;0.342;9.266;-2.179;0.010;0.002;0.001;
20190925_192541;0.201;9.572;-2.284;0.013;0.002;0.001;
20190925_192541;0.180;9.517;-2.236;-0.021;0.004;0.003;
20190925_192541;0.297;9.225;-2.076;-0.013;0.003;0.002;
20190925_192541;0.256;9.038;-2.059;-0.018;0.002;0.004;
20190925_192541;0.189;9.172;-2.174;0.005;0.003;0.002;
20190925_192541;0.273;9.206;-2.133;-0.011;0.002;0.005;
20190925_192541;0.103;9.553;-2.274;0.004;0.002;0.001;
20190925_192541;0.232;9.402;-2.217;-0.011;0.002;0.002;
20190925_192542;0.342;9.340;-2.349;0.010;-0.001;0.004;
20190925_192542;0.278;9.153;-2.286;-0.006;0.001;0.004;
20190925_192542;0.400;9.041;-2.260;0.004;0.001;0.004;
20190925_192542;0.366;9.225;-2.303;0.004;-0.001;0.001;
20190925_192542;0.323;9.347;-2.337;0.032;-0.002;-0.001;
20190925_192542;0.292;9.687;-2.392;0.031;0.002;0.001;
20190925_192542;0.266;9.452;-2.045;-0.015;0.003;0.005;
20190925_192542;0.261;9.268;-1.987;-0.012;0.001;0.004;
20190925_192542;0.290;9.431;-2.160;-0.014;0.002;0.004;
20190925_192542;0.283;9.242;-2.203;-0.021;0.003;0.003;
20190925_192543;0.280;9.201;-2.097;-0.009;0.004;0.001;
20190925_192543;0.249;9.677;-2.243;0.020;0.003;0.002;
20190925_192543;0.306;9.455;-2.083;0.002;-0.001;0.004;
20190925_192543;0.294;9.316;-2.114;0.004;-0.002;0.001;
20190925_192543;0.247;9.165;-2.093;0.009;0.003;0.002;
20190925_192543;0.424;9.443;-2.018;-0.002;-0.001;0.004;
20190925_192543;0.405;9.390;-2.073;-0.017;0.003;0.006;
20190925_192543;0.345;9.536;-2.179;-0.013;-0.001;0.007;
20190925_192543;0.414;9.282;-2.121;-0.016;-0.001;0.006;
20190925_192544;0.381;9.189;-2.224;-0.012;0.001;0.005;
20190925_192544;0.376;9.153;-2.057;0.003;-0.001;0.004;
20190925_192544;0.316;9.158;-2.327;0.021;-0.002;0.003;
20190925_192544;0.318;9.421;-2.401;0.000;0.003;0.003;
20190925_192544;0.345;9.337;-2.231;0.008;0.001;0.002;
20190925_192544;0.280;9.369;-2.207;0.018;0.001;0.001;
20190925_192544;0.304;9.402;-2.176;0.017;0.001;0.003;
20190925_192544;0.271;9.254;-2.164;0.007;0.002;0.004;
20190925_192544;0.493;9.304;-2.107;-0.001;0.001;0.005;
20190925_192545;0.347;9.457;-2.169;0.004;-0.001;0.003;
20190925_192545;0.436;9.321;-2.035;-0.014;0.001;0.004;
20190925_192545;0.393;9.316;-2.081;-0.007;0.002;0.005;
20190925_192545;0.438;9.232;-2.112;0.003;0.003;0.004;
20190925_192545;0.350;9.278;-2.243;0.007;-0.001;0.003;
20190925_192545;0.338;9.364;-2.179;-0.009;0.001;0.004;
20190925_192545;0.400;9.103;-2.112;-0.003;-0.001;0.004;
20190925_192545;0.338;9.345;-2.217;0.021;-0.001;0.001;
20190925_192545;0.306;9.467;-2.145;0.007;0.003;0.003;
20190925_192545;0.275;9.404;-2.263;-0.003;0.002;-0.000;
20190925_192546;0.302;9.522;-2.191;0.012;0.002;0.002;
20190925_192546;0.388;9.464;-2.251;-0.007;0.002;0.002;
20190925_192546;0.467;9.311;-2.191;-0.005;-0.003;0.003;
20190925_192546;0.381;9.318;-2.061;0.012;0.002;0.002;
20190925_192546;0.364;9.371;-2.176;0.001;0.001;0.004;
20190925_192546;0.237;9.292;-2.140;-0.002;0.002;0.003;
20190925_192546;0.206;9.337;-2.014;-0.007;0.003;0.003;
20190925_192546;0.093;9.287;-2.136;0.008;0.003;-0.000;
20190925_192546;0.239;9.462;-2.188;0.000;0.003;0.005;
20190925_192546;0.426;9.325;-2.167;-0.011;0.002;0.003;
20190925_192547;0.476;9.306;-2.105;0.013;-0.002;0.003;
20190925_192547;0.323;9.416;-2.124;0.008;0.001;0.002;
20190925_192547;0.371;9.297;-2.133;0.003;0.001;0.004;
20190925_192547;0.498;9.407;-2.150;0.008;0.001;0.003;
20190925_192547;0.462;9.280;-2.109;-0.009;0.002;0.004;
20190925_192547;0.534;9.196;-2.085;-0.004;0.002;0.003;
20190925_192547;0.400;9.505;-2.148;0.012;0.002;0.003;
20190925_192547;0.450;9.476;-2.042;-0.002;0.001;0.003;
20190925_192547;0.431;9.373;-2.157;0.004;0.002;0.002;
20190925_192548;0.452;9.254;-2.097;0.002;0.001;0.003;
20190925_192548;0.172;9.294;-2.124;0.001;0.001;0.002;
20190925_192548;0.292;9.007;-2.009;-0.002;0.003;0.002;
20190925_192548;0.357;9.251;-2.088;-0.013;0.002;0.003;
20190925_192548;0.259;9.419;-2.179;0.012;0.002;0.004;
20190925_192548;0.366;9.503;-2.294;0.012;0.001;0.003;
20190925_192548;0.302;9.527;-2.270;0.003;-0.002;0.003;
20190925_192548;0.261;9.316;-2.155;0.003;0.002;0.002;
20190925_192548;0.273;9.215;-2.188;0.003;0.001;0.004;
20190925_192548;0.393;9.280;-2.179;-0.005;-0.001;0.004;
20190925_192549;0.414;9.266;-2.083;0.003;-0.002;0.003;
20190925_192549;0.321;9.311;-2.205;0.014;0.001;0.001;
20190925_192549;0.249;9.481;-2.344;0.009;-0.002;0.001;
20190925_192549;0.208;9.431;-2.327;0.011;-0.001;0.003;
20190925_192549;0.302;9.249;-2.253;0.005;0.001;0.002;
20190925_192549;0.261;9.304;-2.248;0.004;-0.001;0.002;
20190925_192549;0.206;9.416;-2.243;0.007;-0.001;0.001;
20190925_192549;0.148;9.404;-2.088;-0.002;0.003;0.004;
20190925_192549;0.223;9.515;-2.119;0.009;0.002;0.004;
20190925_192549;0.371;9.342;-2.164;-0.001;0.001;0.005;
20190925_192550;0.362;9.400;-2.274;0.007;0.001;0.005;
20190925_192550;0.436;9.170;-2.090;-0.011;0.001;0.005;
20190925_192550;0.385;9.210;-2.155;0.001;0.001;0.005;
20190925_192550;0.443;9.400;-2.176;0.012;-0.001;0.005;
20190925_192550;0.371;9.349;-2.169;0.000;-0.001;0.003;
20190925_192550;0.311;9.527;-2.231;0.011;-0.001;0.003;
20190925_192550;0.352;9.431;-2.231;0.000;0.001;0.003;
20190925_192550;0.493;9.316;-2.205;0.003;-0.001;0.005;
20190925_192550;0.431;9.199;-2.236;-0.005;-0.001;0.004;
20190925_192551;0.232;9.273;-2.219;0.009;-0.001;0.002;
20190925_192551;0.383;9.450;-2.236;0.009;-0.002;0.001;
20190925_192551;0.280;9.311;-2.219;0.007;0.001;0.002;
20190925_192551;0.311;9.392;-2.263;0.009;0.001;0.003;
20190925_192551;0.302;9.313;-2.243;-0.012;0.002;0.002;
20190925_192551;0.244;9.244;-2.219;0.002;0.001;0.003;
20190925_192551;0.220;9.345;-2.188;0.007;-0.001;0.001;
20190925_192551;0.180;9.390;-2.241;0.005;0.002;0.003;
20190925_192551;0.256;9.395;-2.224;0.003;0.003;0.002;
20190925_192552;0.275;9.335;-2.198;-0.006;0.002;0.004;
20190925_192552;0.311;9.316;-2.236;0.003;0.002;0.002;
20190925_192552;0.314;9.311;-2.181;0.001;0.002;0.002;
20190925_192552;0.287;9.280;-2.229;-0.005;0.002;0.003;
20190925_192552;0.373;9.357;-2.217;0.002;0.002;0.003;
20190925_192552;0.421;9.467;-2.265;-0.004;0.002;0.003;
20190925_192552;0.376;9.325;-2.272;0.000;0.001;0.003;
20190925_192552;0.350;9.342;-2.286;0.003;0.003;0.002;
20190925_192552;0.383;9.218;-2.296;-0.003;0.001;0.003;
20190925_192552;0.259;9.294;-2.325;0.000;0.004;0.003;
20190925_192553;0.397;9.402;-2.322;-0.006;0.002;0.004;
20190925_192553;0.314;9.373;-2.310;-0.001;0.002;0.001;
20190925_192553;0.405;9.503;-2.346;0.001;0.002;0.002;
20190925_192553;0.316;9.263;-2.260;-0.003;0.004;0.004;
20190925_192553;0.328;9.134;-2.298;0.011;0.002;0.003;
20190925_192553;0.304;9.239;-2.227;0.005;0.002;0.002;
20190925_192553;0.326;9.354;-2.265;0.003;0.002;0.004;
20190925_192553;0.347;9.440;-2.274;0.000;0.001;0.004;
20190925_192553;0.311;9.457;-2.330;0.008;0.002;0.003;
20190925_192554;0.405;9.342;-2.380;-0.003;0.001;0.005;
20190925_192554;0.350;9.266;-2.274;0.002;0.003;0.003;
20190925_192554;0.476;9.254;-2.330;0.004;-0.001;0.003;
20190925_192554;0.263;9.187;-2.318;-0.001;0.002;0.004;
20190925_192554;0.280;9.165;-2.195;-0.011;0.002;0.004;
20190925_192554;0.311;9.371;-2.370;0.002;0.002;0.003;
20190925_192554;0.278;9.275;-2.370;-0.001;0.003;0.004;
20190925_192554;0.352;9.301;-2.413;0.007;0.001;0.002;
20190925_192554;0.311;9.242;-2.337;0.001;0.003;0.002;
20190925_192555;0.230;9.431;-2.423;0.001;0.003;0.001;
20190925_192555;0.395;9.304;-2.339;0.000;0.003;0.003;
20190925_192555;0.371;9.443;-2.308;0.004;0.003;0.003;
20190925_192555;0.424;9.431;-2.260;-0.007;0.003;0.004;
20190925_192555;0.297;9.258;-2.296;0.005;0.002;0.002;
20190925_192555;0.397;9.199;-2.294;0.001;0.001;0.003;
20190925_192555;0.235;9.254;-2.380;0.003;0.004;0.003;
20190925_192555;0.278;9.208;-2.387;-0.006;0.002;0.002;
20190925_192555;0.287;9.316;-2.454;0.008;0.002;0.002;
20190925_192555;0.297;9.337;-2.435;0.009;0.002;0.002;
20190925_192556;0.251;9.519;-2.466;0.015;0.001;0.001;
20190925_192556;0.345;9.371;-2.303;0.004;0.001;0.003;
20190925_192556;0.254;9.371;-2.382;-0.003;0.003;0.003;
20190925_192556;0.309;9.529;-2.344;0.002;0.001;0.001;
20190925_192556;0.345;9.309;-2.267;-0.013;0.002;0.003;
20190925_192556;0.292;9.275;-2.231;0.001;0.002;0.003;
20190925_192556;0.297;9.175;-2.188;-0.003;0.001;0.002;
20190925_192556;0.235;9.215;-2.243;0.002;0.002;0.003;
20190925_192556;0.271;9.254;-2.207;-0.001;0.002;0.004;
20190925_192557;0.294;9.270;-2.320;0.005;0.003;0.003;
20190925_192557;0.366;9.479;-2.334;0.000;0.001;0.003;
20190925_192557;0.373;9.522;-2.308;0.005;0.001;0.004;
20190925_192557;0.390;9.407;-2.303;-0.003;0.002;0.004;
20190925_192557;0.417;9.297;-2.258;0.001;0.001;0.003;
20190925_192557;0.345;9.258;-2.198;-0.005;0.002;0.004;
20190925_192557;0.290;9.189;-2.128;-0.003;0.003;0.003;
20190925_192557;0.352;9.330;-2.272;0.000;0.002;0.003;
20190925_192557;0.347;9.294;-2.155;0.004;0.003;0.003;
20190925_192557;0.429;9.527;-2.267;0.012;-0.001;0.002;
20190925_192558;0.328;9.357;-2.114;-0.007;0.003;0.003;
20190925_192558;0.388;9.388;-2.217;0.011;0.001;0.002;
20190925_192558;0.366;9.517;-2.239;-0.001;0.002;0.002;
20190925_192558;0.426;9.273;-2.109;-0.009;0.002;0.003;
20190925_192558;0.304;9.328;-2.157;0.005;0.003;0.001;
20190925_192558;0.275;9.285;-2.167;0.003;0.001;0.001;
20190925_192558;0.278;9.237;-2.179;0.000;0.002;0.002;
20190925_192558;0.239;9.261;-2.200;-0.002;0.003;0.002;
20190925_192558;0.333;9.254;-2.172;0.005;0.001;0.003;
20190925_192559;0.271;9.306;-2.124;0.007;0.003;0.002;
20190925_192559;0.450;9.455;-2.215;0.009;0.001;0.002;
20190925_192559;0.268;9.491;-2.217;0.000;0.002;0.003;
20190925_192559;0.330;9.512;-2.207;0.001;0.001;0.002;
20190925_192559;0.268;9.215;-2.150;0.000;0.002;0.003;
20190925_192559;0.378;9.378;-2.241;0.001;0.001;0.001;
20190925_192559;0.268;9.165;-2.160;-0.002;0.001;0.004;
20190925_192559;0.316;9.313;-2.167;0.010;0.002;0.003;
20190925_192559;0.273;9.361;-2.157;0.001;0.003;0.004;
20190925_192559;0.261;9.436;-2.246;0.005;-0.001;0.001;
20190925_192600;0.297;9.335;-2.243;0.000;0.003;0.004;
20190925_192600;0.345;9.275;-2.205;-0.003;0.001;0.002;
20190925_192600;0.385;9.304;-2.217;0.008;-0.001;0.003;
20190925_192600;0.316;9.268;-2.210;0.004;0.002;0.002;
20190925_192600;0.350;9.335;-2.207;0.008;0.003;0.002;
20190925_192600;0.287;9.380;-2.181;-0.001;0.002;0.001;
20190925_192600;0.388;9.373;-2.215;0.002;0.002;0.002;
20190925_192600;0.297;9.225;-2.184;0.003;0.002;0.002;
20190925_192600;0.338;9.426;-2.229;0.011;0.001;0.003;
20190925_192601;0.259;9.275;-2.155;-0.003;0.002;0.001;
20190925_192601;0.283;9.404;-2.219;0.001;0.002;0.002;
20190925_192601;0.268;9.407;-2.210;-0.008;0.003;0.001;
20190925_192601;0.249;9.397;-2.217;-0.003;0.002;0.004;
20190925_192601;0.352;9.239;-2.215;-0.003;0.001;0.003;
20190925_192601;0.287;9.359;-2.274;0.005;0.003;0.002;
20190925_192601;0.280;9.325;-2.234;-0.001;0.003;0.002;
20190925_192601;0.350;9.311;-2.251;0.004;0.002;0.003;
20190925_192601;0.232;9.335;-2.310;-0.005;0.003;0.004;
20190925_192601;0.393;9.301;-2.234;0.001;0.001;0.003;
20190925_192602;0.287;9.323;-2.267;0.000;0.001;0.002;
20190925_192602;0.330;9.414;-2.258;0.005;0.002;0.002;
20190925_192602;0.362;9.373;-2.251;-0.005;0.003;0.003;
20190925_192602;0.330;9.325;-2.313;0.000;0.003;0.003;
20190925_192602;0.362;9.335;-2.356;0.000;0.001;0.004;
20190925_192602;0.292;9.273;-2.296;0.000;0.002;0.003;
20190925_192602;0.275;9.249;-2.301;0.000;0.002;0.003;
20190925_192602;0.232;9.292;-2.255;0.007;0.003;0.003;
20190925_192602;0.254;9.349;-2.296;-0.003;0.002;0.004;
20190925_192603;0.311;9.297;-2.301;-0.001;0.002;0.003;
20190925_192603;0.306;9.392;-2.358;0.007;0.003;0.002;
20190925_192603;0.304;9.309;-2.303;-0.002;0.002;0.003;
20190925_192603;0.330;9.287;-2.308;-0.002;0.002;0.003;
20190925_192603;0.304;9.318;-2.423;0.001;0.002;0.002;
20190925_192603;0.383;9.290;-2.406;0.009;0.002;0.002;
20190925_192603;0.278;9.249;-2.418;-0.002;0.003;0.002;
20190925_192603;0.294;9.254;-2.389;0.003;0.003;0.003;
20190925_192603;0.328;9.210;-2.401;0.003;0.002;0.002;
20190925_192604;0.275;9.364;-2.437;0.013;0.001;0.003;
20190925_192604;0.239;9.409;-2.389;0.010;0.001;0.002;
20190925_192604;0.213;9.325;-2.370;-0.002;0.002;0.004;
20190925_192604;0.294;9.321;-2.380;0.003;-0.001;0.002;
20190925_192604;0.271;9.369;-2.380;-0.005;0.001;0.003;
20190925_192604;0.328;9.261;-2.382;0.005;-0.001;0.004;
20190925_192604;0.338;9.323;-2.473;0.002;0.001;0.004;
20190925_192604;0.381;9.299;-2.416;-0.004;-0.001;0.004;
20190925_192604;0.362;9.335;-2.416;0.001;0.002;0.003;
20190925_192604;0.249;9.282;-2.332;-0.003;-0.001;0.004;
20190925_192605;0.280;9.335;-2.337;0.001;0.002;0.003;
20190925_192605;0.280;9.306;-2.392;0.004;0.002;0.003;
20190925_192605;0.283;9.213;-2.279;0.003;0.001;0.003;
20190925_192605;0.371;9.292;-2.392;0.004;0.001;0.003;
20190925_192605;0.364;9.467;-2.406;0.007;-0.001;0.003;
20190925_192605;0.330;9.392;-2.406;-0.006;0.002;0.003;
20190925_192605;0.294;9.414;-2.392;0.001;0.002;0.002;
20190925_192605;0.357;9.227;-2.272;-0.011;0.001;0.004;
20190925_192605;0.278;9.189;-2.274;-0.003;0.002;0.003;
20190925_192606;0.275;9.218;-2.313;0.002;0.002;0.004;
20190925_192606;0.251;9.141;-2.296;0.005;0.001;0.002;
20190925_192606;0.237;9.301;-2.394;0.009;0.001;0.002;
20190925_192606;0.407;9.321;-2.428;0.007;-0.001;0.003;
20190925_192606;0.304;9.191;-2.315;-0.013;0.002;0.003;
20190925_192606;0.321;9.412;-2.500;0.003;0.001;0.003;
20190925_192606;0.148;9.280;-2.387;-0.001;0.001;0.004;
20190925_192606;0.266;9.433;-2.387;0.008;0.001;0.002;
20190925_192606;0.314;9.378;-2.368;-0.014;0.001;0.005;
20190925_192606;0.443;9.316;-2.294;-0.002;0.001;0.003;
20190925_192607;0.223;9.328;-2.246;0.001;0.003;0.004;
20190925_192607;0.297;9.306;-2.279;0.000;0.001;0.003;
20190925_192607;0.206;9.280;-2.346;-0.002;0.001;0.003;
20190925_192607;0.338;9.189;-2.253;-0.007;0.002;0.003;
20190925_192607;0.333;9.201;-2.260;-0.004;0.001;0.004;
20190925_192607;0.297;9.416;-2.433;-0.001;0.002;0.001;
20190925_192607;0.347;9.416;-2.495;0.007;0.001;0.003;
20190925_192607;0.292;9.345;-2.423;0.004;0.001;0.002;
20190925_192607;0.247;9.330;-2.399;0.001;0.002;0.003;
20190925_192608;0.299;9.172;-2.389;-0.005;0.002;0.003;
20190925_192608;0.294;9.084;-2.351;-0.005;0.004;0.003;
20190925_192608;0.273;9.282;-2.435;0.002;0.001;0.001;
20190925_192608;0.488;9.239;-2.476;-0.001;0.003;0.004;
20190925_192608;0.405;9.285;-2.428;0.007;0.003;0.002;
20190925_192608;0.371;9.278;-2.442;0.005;0.002;0.002;
20190925_192608;0.306;9.433;-2.442;0.003;0.003;0.002;
20190925_192608;0.239;9.318;-2.365;-0.002;0.003;0.002;
20190925_192608;0.390;9.433;-2.361;0.002;0.003;0.003;
20190925_192609;0.290;9.352;-2.289;0.002;0.002;0.002;
20190925_192609;0.204;9.278;-2.296;0.004;0.002;0.001;
20190925_192609;0.139;9.237;-2.330;0.009;0.004;-0.000;
20190925_192609;0.218;9.244;-2.342;-0.002;0.003;0.001;
20190925_192609;0.259;9.256;-2.490;-0.003;0.004;0.002;
20190925_192609;0.244;9.301;-2.380;0.007;0.003;-0.000;
20190925_192609;0.187;9.407;-2.282;0.013;0.002;-0.000;
20190925_192609;0.294;9.534;-2.270;0.002;0.003;-0.000;
20190925_192609;0.402;9.364;-2.162;-0.003;0.002;0.003;
20190925_192609;0.294;9.301;-2.198;0.001;0.003;0.002;
20190925_192610;0.287;9.268;-2.243;0.002;0.003;0.002;
20190925_192610;0.139;9.361;-2.274;0.002;0.004;0.001;
20190925_192610;0.302;9.333;-2.236;-0.004;0.002;0.002;
20190925_192610;0.263;9.263;-2.219;-0.011;0.004;0.003;
20190925_192610;0.294;9.325;-2.279;0.004;0.002;0.003;
20190925_192610;0.227;9.258;-2.308;0.000;0.002;0.002;
20190925_192610;0.393;9.263;-2.155;-0.003;0.003;-0.000;
20190925_192610;0.357;9.325;-2.224;-0.003;0.001;0.001;
20190925_192610;0.261;9.383;-2.198;0.002;0.002;0.003;
20190925_192611;0.299;9.459;-2.239;-0.004;0.002;0.002;
20190925_192611;0.230;9.467;-2.193;0.004;0.003;0.001;
20190925_192611;0.271;9.352;-2.188;0.008;0.002;0.001;
20190925_192611;0.256;9.266;-2.169;0.004;0.003;0.002;
20190925_192611;0.290;9.297;-2.210;0.003;0.003;0.004;
20190925_192611;0.340;9.282;-2.114;-0.004;0.002;0.003;
20190925_192611;0.364;9.440;-2.222;-0.001;0.003;0.003;
20190925_192611;0.345;9.522;-2.215;0.000;0.001;0.001;
20190925_192611;0.299;9.337;-2.140;-0.002;0.002;0.002;
20190925_192611;0.342;9.282;-2.105;0.005;0.002;0.002;
20190925_192612;0.299;9.203;-2.152;-0.003;0.001;0.004;
20190925_192612;0.271;9.246;-2.191;0.003;0.001;0.001;
20190925_192612;0.268;9.333;-2.157;-0.003;0.002;0.001;
20190925_192612;0.201;9.325;-2.140;0.000;0.004;0.002;
20190925_192612;0.215;9.371;-2.136;-0.001;0.002;0.002;
20190925_192612;0.232;9.438;-2.188;0.001;0.002;0.003;
20190925_192612;0.187;9.184;-2.138;-0.002;0.004;0.001;
20190925_192612;0.208;9.306;-2.195;0.005;0.004;0.002;
20190925_192612;0.256;9.340;-2.186;-0.003;0.002;0.002;
20190925_192613;0.215;9.452;-2.200;0.009;0.002;0.003;
20190925_192613;0.338;9.488;-2.284;0.000;0.003;0.004;
20190925_192613;0.328;9.352;-2.174;0.003;0.002;0.004;
20190925_192613;0.455;9.266;-2.198;0.000;0.002;0.003;
20190925_192613;0.333;9.280;-2.191;0.003;0.002;0.005;
20190925_192613;0.314;9.316;-2.172;0.002;0.001;0.003;
20190925_192613;0.352;9.421;-2.188;0.002;0.003;0.005;
20190925_192613;0.196;9.321;-2.215;0.003;0.004;0.001;
20190925_192613;0.352;9.450;-2.251;0.007;0.001;0.003;
20190925_192614;0.306;9.301;-2.222;-0.001;0.002;0.002;
20190925_192614;0.400;9.330;-2.234;0.007;0.002;0.004;
20190925_192614;0.371;9.313;-2.155;-0.002;0.002;0.004;
20190925_192614;0.330;9.366;-2.176;-0.003;0.001;0.004;
20190925_192614;0.254;9.323;-2.191;0.001;0.002;0.002;
20190925_192614;0.316;9.263;-2.203;0.003;0.003;0.002;
20190925_192614;0.227;9.290;-2.229;0.004;0.002;0.003;
20190925_192614;0.426;9.199;-2.136;-0.001;0.003;0.004;
20190925_192614;0.345;9.503;-2.207;0.007;0.001;0.002;
20190925_192614;0.429;9.445;-2.277;0.002;0.001;0.003;
20190925_192615;0.338;9.515;-2.215;-0.001;0.002;0.003;
20190925_192615;0.441;9.395;-2.207;-0.008;0.002;0.004;
20190925_192615;0.290;9.179;-2.145;-0.005;0.001;0.004;
20190925_192615;0.299;9.234;-2.152;-0.004;0.003;0.002;
20190925_192615;0.292;9.213;-2.188;0.004;-0.001;0.002;
20190925_192615;0.278;9.395;-2.251;0.010;0.002;0.002;
20190925_192615;0.297;9.261;-2.215;0.003;0.002;0.004;
20190925_192615;0.271;9.340;-2.267;0.002;0.002;0.004;
20190925_192615;0.311;9.311;-2.184;-0.002;0.003;0.003;
20190925_192616;0.299;9.323;-2.255;0.005;0.003;0.003;
20190925_192616;0.309;9.452;-2.289;0.002;0.002;0.004;
20190925_192616;0.362;9.421;-2.251;0.003;0.002;0.004;
20190925_192616;0.362;9.469;-2.303;0.009;0.001;0.002;
20190925_192616;0.326;9.364;-2.301;0.001;0.001;0.003;
20190925_192616;0.340;9.194;-2.184;0.001;0.002;0.003;
20190925_192616;0.354;9.139;-2.222;0.000;0.002;0.004;
20190925_192616;0.328;9.301;-2.289;0.012;0.002;0.003;
20190925_192616;0.383;9.371;-2.195;0.003;0.002;0.003;
20190925_192616;0.326;9.474;-2.313;0.010;0.001;0.003;
20190925_192617;0.304;9.383;-2.263;-0.002;0.002;0.003;
20190925_192617;0.350;9.234;-2.263;0.001;0.001;0.003;
20190925_192617;0.297;9.309;-2.313;-0.001;0.004;0.004;
20190925_192617;0.333;9.342;-2.354;0.003;0.002;0.002;
20190925_192617;0.345;9.316;-2.284;0.001;0.001;0.001;
20190925_192617;0.328;9.479;-2.334;0.011;-0.003;0.004;
20190925_192617;0.302;9.316;-2.310;-0.001;0.004;0.003;
20190925_192617;0.165;9.263;-2.200;-0.006;0.004;0.003;
20190925_192617;0.251;9.258;-2.265;0.004;0.002;0.003;
20190925_192618;0.275;9.278;-2.272;0.001;0.002;0.003;
20190925_192618;0.273;9.440;-2.306;0.005;0.003;0.002;
20190925_192618;0.239;9.524;-2.313;0.002;0.003;0.003;
20190925_192618;0.213;9.357;-2.229;-0.009;0.004;0.004;
20190925_192618;0.285;9.357;-2.253;0.000;0.003;0.002;
20190925_192618;0.309;9.155;-2.222;0.004;0.004;0.004;
20190925_192618;0.239;9.258;-2.267;0.005;0.003;0.003;
20190925_192618;0.321;9.380;-2.322;-0.001;0.002;0.004;
20190925_192618;0.321;9.160;-2.136;-0.005;0.003;0.004;
20190925_192619;0.306;9.371;-2.342;0.003;0.002;0.002;
20190925_192619;0.409;9.316;-2.253;-0.002;0.002;0.003;
20190925_192619;0.407;9.364;-2.272;0.002;0.001;0.003;
20190925_192619;0.302;9.366;-2.251;-0.004;0.003;0.002;
20190925_192619;0.338;9.378;-2.227;0.003;0.002;0.001;
20190925_192619;0.287;9.443;-2.286;0.003;0.002;0.003;
20190925_192619;0.340;9.380;-2.272;0.002;0.002;0.004;
20190925_192619;0.302;9.232;-2.294;-0.006;0.004;0.003;
20190925_192619;0.249;9.163;-2.160;0.005;0.004;0.003;
20190925_192619;0.251;9.184;-2.184;-0.003;0.003;0.003;
20190925_192620;0.263;9.342;-2.219;0.011;0.002;0.003;
20190925_192620;0.278;9.486;-2.392;0.014;0.001;0.002;
20190925_192620;0.287;9.414;-2.272;0.008;0.003;0.002;
20190925_192620;0.323;9.443;-2.274;0.003;0.003;0.002;
20190925_192620;0.409;9.333;-2.234;-0.007;0.003;0.003;
20190925_192620;0.395;9.294;-2.138;-0.003;0.004;0.002;
20190925_192620;0.366;9.273;-2.172;-0.005;0.003;0.003;
20190925_192620;0.297;9.280;-2.150;0.000;0.002;0.002;
20190925_192620;0.340;9.333;-2.205;-0.002;0.002;0.002;
20190925_192621;0.328;9.213;-2.124;0.003;0.002;0.003;
20190925_192621;0.256;9.285;-2.212;-0.001;0.003;0.002;
20190925_192621;0.283;9.335;-2.219;0.010;0.002;0.002;
20190925_192621;0.287;9.438;-2.258;0.003;0.002;0.002;
20190925_192621;0.323;9.455;-2.176;0.001;0.001;0.003;
20190925_192621;0.318;9.373;-2.251;0.005;-0.002;0.002;
20190925_192621;0.297;9.424;-2.373;0.009;-0.002;0.003;
20190925_192621;0.369;9.321;-2.203;0.003;0.003;0.004;
20190925_192621;0.345;9.282;-2.188;-0.003;0.003;0.003;
20190925_192622;0.390;9.203;-1.870;0.036;0.012;0.004;
20190925_192622;0.318;9.445;-2.109;0.002;-0.001;0.001;
20190925_192622;0.278;9.412;-2.167;-0.009;0.002;0.003;
20190925_192622;0.352;9.457;-2.203;0.000;0.004;0.004;
20190925_192622;0.271;9.357;-2.152;0.003;0.002;0.003;
20190925_192622;0.338;9.313;-2.191;-0.011;0.003;0.004;
20190925_192622;0.338;9.285;-2.198;0.002;0.002;0.003;
20190925_192622;0.316;9.364;-2.258;-0.002;0.003;0.003;
20190925_192622;0.357;9.297;-2.203;-0.003;0.002;0.003;
20190925_192622;0.251;9.333;-2.277;0.003;0.002;0.001;
20190925_192623;0.350;9.400;-2.229;-0.002;0.001;0.004;
20190925_192623;0.285;9.208;-2.188;0.002;-0.002;0.002;
20190925_192623;0.330;9.414;-2.136;-0.006;0.001;0.004;
20190925_192623;0.318;9.359;-2.205;-0.005;0.002;0.003;
20190925_192623;0.280;9.404;-2.222;-0.001;0.003;0.003;
20190925_192623;0.297;9.464;-2.236;0.001;0.002;0.002;
20190925_192623;0.326;9.330;-2.229;-0.002;0.004;0.003;
20190925_192623;0.347;9.261;-2.124;-0.003;0.003;0.003;
20190925_192623;0.350;9.278;-2.188;0.000;0.002;0.002;
20190925_192624;0.278;9.347;-2.176;0.007;0.002;0.001;
20190925_192624;0.328;9.347;-2.138;0.005;0.002;0.001;
20190925_192624;0.239;9.395;-2.248;0.000;0.003;0.002;
20190925_192624;0.254;9.361;-2.198;0.012;0.002;0.003;
20190925_192624;0.302;9.354;-2.188;0.002;0.001;0.003;
20190925_192624;0.304;9.416;-2.258;-0.002;0.003;0.003;
20190925_192624;0.340;9.352;-2.191;0.004;0.002;0.003;
20190925_192624;0.294;9.369;-2.207;-0.007;0.004;0.004;
20190925_192624;0.378;9.313;-2.198;-0.006;0.003;0.004;
20190925_192625;0.309;9.287;-2.184;0.002;0.002;0.003;
20190925_192625;0.316;9.304;-2.251;0.003;0.002;0.003;
20190925_192625;0.347;9.227;-2.210;0.002;-0.001;0.002;
20190925_192625;0.335;9.364;-2.155;0.003;0.002;0.003;
20190925_192625;0.328;9.431;-2.227;0.001;0.002;0.003;
20190925_192625;0.306;9.428;-2.222;-0.001;0.002;0.003;
20190925_192625;0.292;9.431;-2.239;-0.004;0.002;0.003;
20190925_192625;0.304;9.301;-2.210;-0.005;0.003;0.004;
20190925_192625;0.244;9.270;-2.128;-0.004;0.003;0.003;
20190925_192625;0.323;9.234;-2.176;0.002;0.002;0.003;
20190925_192626;0.297;9.306;-2.162;0.004;0.003;0.003;
20190925_192626;0.383;9.311;-2.152;0.004;0.002;0.003;
20190925_192626;0.280;9.440;-2.234;0.012;0.002;0.003;
20190925_192626;0.292;9.404;-2.188;0.001;0.002;0.003;
20190925_192626;0.311;9.361;-2.136;0.000;0.003;0.003;
20190925_192626;0.383;9.364;-2.160;0.000;0.003;0.004;
20190925_192626;0.347;9.392;-2.195;-0.002;0.003;0.002;
20190925_192626;0.330;9.335;-2.164;-0.002;0.002;0.003;
20190925_192626;0.330;9.371;-2.191;-0.003;0.003;0.003;
20190925_192627;0.299;9.287;-2.126;0.000;0.002;0.003;
20190925_192627;0.254;9.282;-2.112;0.002;0.002;0.002;
20190925_192627;0.206;9.249;-2.109;-0.001;0.003;0.002;
20190925_192627;0.271;9.342;-2.176;0.003;0.003;0.003;
20190925_192627;0.239;9.459;-2.217;0.004;0.002;0.003;
20190925_192627;0.328;9.488;-2.169;0.007;0.001;0.002;
20190925_192627;0.323;9.416;-2.231;0.004;0.002;0.004;
20190925_192627;0.314;9.256;-2.114;0.001;0.002;0.003;
20190925_192627;0.381;9.297;-2.100;0.001;0.001;0.003;
20190925_192627;0.304;9.268;-2.090;-0.006;0.004;0.003;
20190925_192628;0.366;9.402;-2.143;-0.001;0.002;0.003;
20190925_192628;0.285;9.290;-2.049;-0.001;0.001;0.003;
20190925_192628;0.381;9.395;-2.191;0.002;0.002;0.002;
20190925_192628;0.299;9.297;-2.124;-0.005;0.002;0.004;
20190925_192628;0.405;9.376;-2.145;0.001;0.002;0.004;
20190925_192628;0.283;9.385;-2.186;0.005;-0.001;0.002;
20190925_192628;0.335;9.409;-2.148;0.008;0.001;0.002;
20190925_192628;0.352;9.488;-2.148;0.009;0.002;0.002;
20190925_192628;0.208;9.392;-2.116;-0.004;0.004;0.001;
20190925_192629;0.340;9.232;-2.100;0.003;0.003;0.003;
20190925_192629;0.359;9.290;-2.150;0.002;0.002;0.002;
20190925_192629;0.280;9.321;-2.136;0.009;0.002;0.002;
20190925_192629;0.345;9.397;-2.195;0.016;-0.002;0.002;
20190925_192629;0.364;9.376;-2.184;0.011;0.002;0.003;
20190925_192629;0.311;9.436;-2.231;0.002;0.003;0.002;
20190925_192629;0.328;9.354;-2.186;-0.003;0.003;0.003;
20190925_192629;0.299;9.328;-2.109;0.000;0.003;0.002;
20190925_192629;0.321;9.270;-2.172;0.003;0.001;0.001;
20190925_192630;0.333;9.388;-2.155;0.005;0.003;0.003;
20190925_192630;0.383;9.388;-2.198;-0.002;0.001;0.003;
20190925_192630;0.306;9.287;-2.097;0.000;0.003;0.003;
20190925_192630;0.328;9.292;-2.121;0.007;0.001;0.002;
20190925_192630;0.299;9.294;-2.150;0.001;0.002;0.003;
20190925_192630;0.278;9.361;-2.207;0.009;0.001;0.002;
20190925_192630;0.309;9.395;-2.227;0.007;0.004;0.003;
20190925_192630;0.299;9.419;-2.143;-0.004;0.003;0.003;
20190925_192630;0.338;9.383;-2.176;0.001;0.003;0.003;
20190925_192630;0.371;9.361;-2.217;0.000;0.002;0.003;
20190925_192631;0.385;9.275;-2.148;0.001;0.001;0.002;
20190925_192631;0.342;9.268;-2.152;0.001;0.001;0.003;
20190925_192631;0.314;9.318;-2.121;-0.002;0.004;0.004;
20190925_192631;0.306;9.349;-2.148;0.001;0.002;0.003;
20190925_192631;0.321;9.436;-2.157;0.003;0.002;0.002;
20190925_192631;0.287;9.409;-2.239;0.007;0.002;0.001;
20190925_192631;0.306;9.397;-2.200;-0.001;0.002;0.002;
20190925_192631;0.290;9.330;-2.143;0.002;0.002;0.003;
20190925_192631;0.326;9.388;-2.172;0.002;0.001;0.002;
20190925_192632;0.345;9.299;-2.155;0.000;0.002;0.003;
20190925_192632;0.335;9.361;-2.140;0.001;-0.001;0.003;
20190925_192632;0.271;9.287;-2.131;0.002;0.002;0.003;
20190925_192632;0.311;9.203;-2.131;-0.001;0.003;0.003;
20190925_192632;0.318;9.369;-2.207;0.007;0.001;0.003;
20190925_192632;0.326;9.376;-2.186;0.003;0.001;0.003;
20190925_192632;0.364;9.445;-2.234;-0.001;0.001;0.003;
20190925_192632;0.330;9.369;-2.265;0.000;0.002;0.002;
20190925_192632;0.340;9.369;-2.310;0.004;0.002;0.002;
20190925_192632;0.333;9.244;-2.291;0.001;0.002;0.002;
20190925_192633;0.278;9.210;-2.377;0.002;0.001;0.003;
20190925_192633;0.340;9.297;-2.375;0.007;0.001;0.002;
20190925_192633;0.314;9.340;-2.382;0.002;0.001;0.002;
20190925_192633;0.321;9.392;-2.447;0.004;0.002;0.002;
20190925_192633;0.364;9.357;-2.337;-0.005;0.003;0.003;
20190925_192633;0.280;9.299;-2.236;0.001;0.002;0.002;
20190925_192633;0.335;9.354;-2.255;-0.003;0.002;0.003;
20190925_192633;0.345;9.349;-2.263;0.000;0.002;0.003;
20190925_192633;0.287;9.321;-2.248;-0.001;0.002;0.002;
20190925_192634;0.316;9.335;-2.296;0.001;0.002;0.003;
20190925_192634;0.275;9.275;-2.327;0.002;0.002;0.004;
20190925_192634;0.283;9.285;-2.313;0.002;0.001;0.002;
20190925_192634;0.362;9.275;-2.325;0.004;0.002;0.003;
20190925_192634;0.292;9.373;-2.370;0.001;0.002;0.002;
20190925_192634;0.347;9.378;-2.363;0.003;0.001;0.003;
20190925_192634;0.345;9.383;-2.330;0.001;0.003;0.004;
20190925_192634;0.338;9.359;-2.284;0.002;0.002;0.002;
20190925_192634;0.330;9.345;-2.270;-0.001;0.001;0.003;
20190925_192635;0.302;9.256;-2.284;0.000;0.002;0.003;
20190925_192635;0.333;9.290;-2.289;-0.001;0.001;0.003;
20190925_192635;0.335;9.306;-2.306;0.002;0.003;0.002;
20190925_192635;0.268;9.287;-2.320;0.004;0.002;0.002;
20190925_192635;0.309;9.342;-2.308;0.004;0.001;0.003;
20190925_192635;0.271;9.318;-2.296;0.002;0.002;0.002;
20190925_192635;0.371;9.402;-2.306;-0.003;-0.001;0.003;
20190925_192635;0.266;9.388;-2.313;-0.005;0.003;0.003;
20190925_192635;0.371;9.364;-2.320;0.005;0.001;0.003;
20190925_192635;0.304;9.357;-2.330;-0.001;0.002;0.004;
20190925_192636;0.333;9.242;-2.215;-0.005;0.003;0.002;
20190925_192636;0.342;9.210;-2.277;0.003;0.003;0.003;
20190925_192636;0.333;9.251;-2.274;0.000;0.002;0.002;
20190925_192636;0.326;9.270;-2.253;-0.004;0.001;0.003;
20190925_192636;0.311;9.357;-2.296;0.001;0.003;0.003;
20190925_192636;0.316;9.325;-2.306;0.002;0.002;0.003;
20190925_192636;0.350;9.333;-2.330;0.002;0.002;0.002;
20190925_192636;0.333;9.416;-2.354;0.001;0.002;0.003;
20190925_192636;0.385;9.333;-2.346;-0.007;0.002;0.003;
20190925_192637;0.309;9.306;-2.382;-0.003;0.001;0.004;
20190925_192637;0.318;9.246;-2.325;-0.002;0.002;0.003;
20190925_192637;0.354;9.244;-2.286;-0.001;0.002;0.003;
20190925_192637;0.283;9.234;-2.289;0.000;0.001;0.002;
20190925_192637;0.323;9.359;-2.298;0.005;0.001;0.002;
20190925_192637;0.280;9.395;-2.289;0.003;0.002;0.003;
20190925_192637;0.299;9.392;-2.308;0.000;0.002;0.002;
20190925_192637;0.338;9.402;-2.270;-0.002;0.002;0.003;
20190925_192637;0.316;9.335;-2.325;0.004;0.002;0.002;
20190925_192638;0.345;9.270;-2.320;-0.002;0.001;0.003;
20190925_192638;0.299;9.318;-2.337;0.001;0.003;0.002;
20190925_192638;0.299;9.261;-2.303;-0.004;0.002;0.003;
20190925_192638;0.326;9.266;-2.320;-0.001;0.002;0.002;
20190925_192638;0.285;9.261;-2.296;0.004;0.002;0.003;
20190925_192638;0.354;9.294;-2.277;0.003;0.002;0.003;
20190925_192638;0.299;9.392;-2.251;0.005;0.002;0.003;
20190925_192638;0.321;9.361;-2.291;-0.002;0.002;0.004;
20190925_192638;0.359;9.388;-2.296;0.003;0.002;0.003;
20190925_192638;0.342;9.395;-2.354;0.003;0.002;0.003;
20190925_192639;0.316;9.294;-2.289;-0.004;0.003;0.003;
20190925_192639;0.311;9.299;-2.294;-0.002;0.002;0.003;
20190925_192639;0.311;9.222;-2.315;-0.002;0.002;0.002;
20190925_192639;0.297;9.304;-2.306;0.002;0.004;0.002;
20190925_192639;0.345;9.270;-2.298;0.000;0.002;0.002;
20190925_192639;0.263;9.321;-2.303;0.003;0.003;0.001;
20190925_192639;0.364;9.347;-2.294;0.004;0.002;0.003;
20190925_192639;0.302;9.306;-2.294;-0.001;0.001;0.004;
20190925_192639;0.302;9.495;-2.344;0.009;0.001;0.001;
20190925_192640;0.333;9.404;-2.370;-0.002;0.001;0.003;
20190925_192640;0.268;9.371;-2.368;-0.002;0.002;0.003;
20190925_192640;0.299;9.285;-2.296;0.002;0.002;0.003;
20190925_192640;0.297;9.244;-2.306;-0.002;0.001;0.003;
20190925_192640;0.290;9.201;-2.267;-0.001;0.003;0.002;
20190925_192640;0.292;9.299;-2.346;0.002;0.002;0.002;
20190925_192640;0.302;9.230;-2.234;-0.001;0.002;0.002;
20190925_192640;0.330;9.371;-2.325;0.007;0.002;0.002;
20190925_192640;0.350;9.349;-2.272;0.000;0.001;0.003;
20190925_192640;0.369;9.361;-2.308;0.000;0.001;0.003;
20190925_192641;0.338;9.400;-2.294;0.002;0.001;0.003;
20190925_192641;0.352;9.273;-2.322;-0.001;0.002;0.003;
20190925_192641;0.352;9.385;-2.368;0.000;0.001;0.002;
20190925_192641;0.333;9.222;-2.310;-0.002;0.003;0.003;
20190925_192641;0.283;9.311;-2.334;0.003;0.003;0.002;
20190925_192641;0.266;9.266;-2.325;0.000;0.003;0.002;
20190925_192641;0.287;9.335;-2.315;0.005;0.003;0.002;
20190925_192641;0.316;9.364;-2.289;0.000;0.002;0.002;
20190925_192641;0.285;9.342;-2.286;0.000;0.002;0.002;
20190925_192641;0.338;9.404;-2.258;0.000;0.003;0.003;
20190925_192642;0.292;9.330;-2.303;0.000;0.003;0.003;
20190925_192642;0.294;9.285;-2.284;0.000;0.001;0.004;
20190925_192642;0.354;9.306;-2.320;0.003;0.002;0.003;
20190925_192642;0.266;9.285;-2.320;0.000;0.003;0.003;
20190925_192642;0.347;9.239;-2.263;-0.001;0.002;0.003;
20190925_192642;0.328;9.282;-2.318;0.002;0.002;0.003;
20190925_192642;0.335;9.273;-2.318;0.005;0.002;0.003;
20190925_192642;0.350;9.354;-2.322;0.005;0.003;0.002;
20190925_192642;0.311;9.361;-2.294;0.001;0.002;0.003;
20190925_192643;0.357;9.383;-2.294;0.002;0.002;0.003;
20190925_192643;0.326;9.347;-2.320;-0.001;0.003;0.003;
20190925_192643;0.316;9.309;-2.279;0.001;0.001;0.003;
20190925_192643;0.302;9.301;-2.289;0.003;0.003;0.003;
20190925_192643;0.261;9.285;-2.296;0.001;0.002;0.003;
20190925_192643;0.338;9.218;-2.263;0.002;0.003;0.003;
20190925_192643;0.306;9.323;-2.301;0.001;0.003;0.003;
20190925_192643;0.347;9.297;-2.310;0.003;0.001;0.002;
20190925_192643;0.290;9.440;-2.363;0.007;0.002;0.003;
20190925_192643;0.352;9.416;-2.349;0.004;0.001;0.002;
20190925_192644;0.299;9.395;-2.320;0.003;0.002;0.001;
20190925_192644;0.366;9.301;-2.286;-0.004;0.002;0.004;
20190925_192644;0.338;9.263;-2.322;-0.001;0.002;0.002;
20190925_192644;0.309;9.297;-2.298;-0.002;0.002;0.002;
20190925_192644;0.306;9.275;-2.301;0.002;0.002;0.002;
20190925_192644;0.340;9.237;-2.284;-0.001;0.002;0.003;
20190925_192644;0.309;9.328;-2.279;-0.001;0.002;0.002;
20190925_192644;0.299;9.325;-2.306;0.000;0.002;0.003;
20190925_192644;0.311;9.342;-2.310;0.005;0.002;0.002;
20190925_192645;0.335;9.395;-2.296;0.002;0.001;0.002;
20190925_192645;0.302;9.323;-2.267;-0.006;0.002;0.003;
20190925_192645;0.335;9.313;-2.308;0.003;0.002;0.003;
20190925_192645;0.362;9.280;-2.325;-0.003;0.001;0.003;
20190925_192645;0.316;9.199;-2.282;-0.004;0.002;0.002;
20190925_192645;0.352;9.273;-2.248;-0.001;0.002;0.003;
20190925_192645;0.328;9.376;-2.296;0.009;0.001;0.002;
20190925_192645;0.294;9.354;-2.279;-0.001;0.002;0.003;
20190925_192645;0.359;9.455;-2.325;0.003;0.002;0.003;
20190925_192646;0.316;9.474;-2.315;0.002;0.002;0.003;
20190925_192646;0.340;9.282;-2.270;-0.005;0.002;0.003;
20190925_192646;0.330;9.282;-2.306;-0.001;0.002;0.002;
20190925_192646;0.280;9.256;-2.294;-0.004;0.002;0.004;
20190925_192646;0.328;9.215;-2.298;0.002;0.002;0.003;
20190925_192646;0.302;9.287;-2.274;0.003;0.003;0.002;
20190925_192646;0.350;9.349;-2.313;0.003;0.001;0.003;
20190925_192646;0.323;9.371;-2.322;0.003;0.002;0.002;
20190925_192646;0.366;9.359;-2.272;-0.001;0.002;0.002;
20190925_192647;0.345;9.376;-2.294;-0.001;0.002;0.003;
20190925_192647;0.278;9.330;-2.325;0.000;0.002;0.002;
20190925_192647;0.316;9.290;-2.313;-0.003;0.001;0.003;
20190925_192647;0.326;9.316;-2.327;-0.001;0.003;0.003;
20190925_192647;0.318;9.261;-2.306;0.001;0.003;0.003;
20190925_192647;0.333;9.278;-2.270;0.001;0.002;0.003;
20190925_192647;0.294;9.234;-2.284;0.003;0.002;0.003;
20190925_192647;0.352;9.292;-2.286;0.003;0.002;0.004;
20190925_192647;0.297;9.345;-2.270;0.004;0.004;0.002;
20190925_192647;0.362;9.337;-2.308;0.004;0.002;0.001;
20190925_192648;0.345;9.357;-2.351;0.005;0.002;0.002;
20190925_192648;0.256;9.397;-2.284;-0.002;0.003;0.004;
20190925_192648;0.318;9.292;-2.298;0.000;0.001;0.003;
20190925_192648;0.330;9.290;-2.239;-0.006;0.003;0.004;
20190925_192648;0.285;9.268;-2.418;0.013;0.003;0.003;
20190925_192648;0.321;9.318;-2.291;0.004;0.003;0.002;
20190925_192648;0.326;9.220;-2.255;-0.004;0.002;0.003;
20190925_192648;0.306;9.292;-2.334;0.000;0.002;0.003;
20190925_192648;0.294;9.416;-2.334;-0.003;0.001;0.002;
20190925_192649;0.294;9.340;-2.263;0.000;0.002;0.003;
20190925_192649;0.357;9.409;-2.310;0.007;0.002;0.003;
20190925_192649;0.340;9.290;-2.279;-0.002;0.002;0.003;
20190925_192649;0.366;9.347;-2.313;0.007;0.001;0.003;
20190925_192649;0.326;9.275;-2.332;-0.002;0.002;0.002;
20190925_192649;0.371;9.325;-2.315;0.002;0.002;0.002;
20190925_192649;0.390;9.309;-2.315;0.001;0.002;0.004;
20190925_192649;0.280;9.266;-2.298;0.000;0.002;0.003;
20190925_192649;0.373;9.361;-2.277;0.000;0.002;0.003;
20190925_192650;0.280;9.337;-2.248;0.004;0.003;0.002;
20190925_192650;0.366;9.321;-2.265;-0.003;0.002;0.003;
20190925_192650;0.273;9.378;-2.263;-0.001;0.003;0.002;
20190925_192650;0.275;9.407;-2.392;0.010;0.001;0.001;
20190925_192650;0.304;9.275;-2.274;-0.004;0.003;0.003;
20190925_192650;0.287;9.292;-2.392;0.012;0.002;0.001;
20190925_192650;0.326;9.220;-2.181;-0.009;0.002;0.004;
20190925_192650;0.352;9.273;-2.303;0.005;0.002;0.003;
20190925_192650;0.285;9.369;-2.349;0.002;0.001;0.003;
20190925_192650;0.340;9.325;-2.296;0.001;0.001;0.003;
20190925_192651;0.302;9.436;-2.289;0.002;0.001;0.002;
20190925_192651;0.347;9.290;-2.286;-0.004;0.002;0.003;
20190925_192651;0.299;9.388;-2.320;-0.001;0.001;0.003;
20190925_192651;0.345;9.337;-2.322;-0.001;0.003;0.002;
20190925_192651;0.323;9.249;-2.306;0.000;0.002;0.003;
20190925_192651;0.352;9.292;-2.274;0.000;0.002;0.003;
20190925_192651;0.326;9.292;-2.310;0.001;0.002;0.003;
20190925_192651;0.342;9.328;-2.298;-0.001;0.002;0.004;
20190925_192651;0.306;9.337;-2.296;0.001;0.002;0.002;
20190925_192652;0.350;9.345;-2.279;0.000;0.001;0.003;
20190925_192652;0.328;9.304;-2.303;-0.003;0.002;0.003;
20190925_192652;0.357;9.299;-2.274;0.004;0.002;0.002;
20190925_192652;0.323;9.285;-2.258;0.000;-0.001;0.000;
20190925_192652;0.283;9.297;-2.289;-0.004;0.001;-0.001;
20190925_192652;0.338;9.325;-2.318;0.005;-0.001;-0.001;
20190925_192652;0.335;9.342;-2.327;-0.002;0.000;-0.001;
20190925_192652;0.290;9.318;-2.318;-0.001;0.001;0.000;
20190925_192652;0.328;9.311;-2.277;0.001;0.000;-0.001;
20190925_192652;0.299;9.354;-2.291;-0.003;0.002;0.000;
20190925_192653;0.333;9.369;-2.334;-0.001;-0.001;0.000;
20190925_192653;0.302;9.282;-2.267;-0.001;-0.001;0.000;
20190925_192653;0.321;9.328;-2.277;-0.003;0.000;-0.001;
20190925_192653;0.352;9.323;-2.291;-0.002;0.000;0.000;
20190925_192653;0.321;9.301;-2.284;0.001;-0.001;0.000;
20190925_192653;0.299;9.280;-2.265;-0.001;0.001;0.000;
20190925_192653;0.362;9.304;-2.284;0.002;0.000;0.000;
20190925_192653;0.304;9.313;-2.294;-0.001;0.000;-0.001;
20190925_192653;0.335;9.361;-2.320;-0.001;-0.001;-0.001;
20190925_192654;0.287;9.333;-2.346;0.003;0.000;-0.001;
20190925_192654;0.328;9.316;-2.313;0.000;-0.001;0.000;
20190925_192654;0.306;9.325;-2.337;-0.001;0.000;-0.001;
20190925_192654;0.292;9.316;-2.351;0.001;0.001;-0.001;
20190925_192654;0.338;9.282;-2.284;0.000;-0.001;-0.001;
20190925_192654;0.304;9.261;-2.286;0.000;0.001;-0.001;
20190925_192654;0.347;9.297;-2.303;0.002;-0.001;0.000;
20190925_192654;0.309;9.361;-2.339;0.008;0.000;-0.001;
20190925_192654;0.314;9.342;-2.294;0.003;-0.001;-0.001;
20190925_192655;0.323;9.369;-2.294;0.002;-0.001;-0.001;
20190925_192655;0.290;9.369;-2.298;0.001;0.000;0.001;
20190925_192655;0.335;9.328;-2.298;-0.001;0.001;-0.001;
20190925_192655;0.338;9.292;-2.325;-0.005;0.000;0.001;
20190925_192655;0.330;9.297;-2.313;-0.001;-0.001;0.000;
20190925_192655;0.304;9.256;-2.289;-0.003;0.001;0.000;
20190925_192655;0.321;9.316;-2.313;0.001;0.001;0.000;
20190925_192655;0.299;9.325;-2.267;0.002;-0.001;0.000;
20190925_192655;0.338;9.328;-2.301;-0.001;-0.001;0.000;
20190925_192655;0.299;9.376;-2.296;0.005;0.000;-0.001;
20190925_192656;0.311;9.388;-2.282;0.000;0.000;0.000;
20190925_192656;0.364;9.280;-2.325;-0.002;-0.001;0.000;
20190925_192656;0.323;9.278;-2.306;0.005;0.000;-0.001;
20190925_192656;0.333;9.275;-2.315;-0.001;-0.001;0.000;
20190925_192656;0.275;9.304;-2.310;0.004;0.000;-0.001;
20190925_192656;0.350;9.333;-2.303;-0.002;0.001;0.000;
20190925_192656;0.299;9.347;-2.303;-0.002;0.000;-0.001;
20190925_192656;0.326;9.388;-2.265;0.001;-0.002;0.000;
20190925_192656;0.314;9.376;-2.315;0.002;-0.001;-0.001;
20190925_192657;0.287;9.282;-2.289;-0.005;0.001;-0.001;
20190925_192657;0.323;9.347;-2.284;-0.004;0.000;-0.001;
20190925_192657;0.330;9.364;-2.332;0.000;-0.001;-0.001;
20190925_192657;0.271;9.227;-2.241;0.001;0.001;0.000;
20190925_192657;0.326;9.369;-2.310;0.002;0.000;-0.001;
20190925_192657;0.323;9.294;-2.306;-0.001;0.000;0.000;
20190925_192657;0.350;9.407;-2.318;0.007;-0.002;0.000;
20190925_192657;0.350;9.337;-2.301;-0.003;0.000;-0.001;
20190925_192657;0.347;9.254;-2.286;-0.001;0.000;0.000;
20190925_192657;0.321;9.364;-2.334;0.003;0.000;-0.001;
20190925_192658;0.304;9.266;-2.325;0.000;0.001;-0.001;
20190925_192658;0.304;9.301;-2.279;0.003;-0.002;-0.001;
20190925_192658;0.311;9.369;-2.342;0.003;0.000;-0.001;
20190925_192658;0.273;9.301;-2.296;0.000;0.001;-0.002;
20190925_192658;0.362;9.366;-2.291;-0.002;0.000;0.001;
20190925_192658;0.309;9.321;-2.334;0.002;0.000;0.000;
20190925_192658;0.266;9.239;-2.251;-0.002;0.000;-0.001;
20190925_192658;0.328;9.275;-2.298;0.004;0.000;0.000;
20190925_192658;0.299;9.352;-2.330;0.000;0.000;0.001;
20190925_192659;0.338;9.285;-2.263;0.000;0.000;0.000;
20190925_192659;0.328;9.378;-2.373;0.009;-0.001;-0.001;
20190925_192659;0.333;9.330;-2.318;0.001;0.000;-0.001;
20190925_192659;0.340;9.335;-2.289;0.004;-0.001;-0.001;
20190925_192659;0.311;9.285;-2.272;-0.003;-0.001;-0.001;
20190925_192659;0.309;9.285;-2.282;0.000;0.000;0.001;
20190925_192659;0.328;9.316;-2.277;0.001;0.000;-0.001;
20190925_192659;0.290;9.282;-2.303;-0.001;-0.001;0.000;
20190925_192659;0.326;9.395;-2.337;0.001;0.000;0.000;
20190925_192700;0.323;9.292;-2.294;-0.003;0.001;0.001;
20190925_192700;0.311;9.373;-2.308;0.000;0.000;0.000;
20190925_192700;0.330;9.383;-2.346;-0.007;0.000;0.000;
20190925_192700;0.306;9.313;-2.342;0.000;0.000;-0.001;
20190925_192700;0.302;9.388;-2.349;0.004;-0.001;0.000;
20190925_192700;0.294;9.275;-2.330;0.001;-0.001;0.000;
20190925_192700;0.350;9.285;-2.334;-0.002;-0.001;0.000;
20190925_192700;0.338;9.306;-2.255;0.002;-0.001;-0.001;
20190925_192700;0.352;9.301;-2.291;0.001;-0.001;-0.001;
20190925_192700;0.302;9.311;-2.260;-0.004;-0.002;0.000;
20190925_192701;0.335;9.349;-2.310;0.002;0.000;0.000;
20190925_192701;0.292;9.409;-2.339;0.004;-0.001;-0.001;
20190925_192701;0.323;9.299;-2.267;-0.001;0.000;0.000;
20190925_192701;0.333;9.328;-2.351;-0.001;0.000;0.000;
20190925_192701;0.338;9.301;-2.346;-0.000;0.001;0.000;
20190925_192701;0.292;9.280;-2.294;0.002;-0.001;0.000;
20190925_192701;0.318;9.301;-2.301;-0.002;0.000;-0.001;
20190925_192701;0.316;9.309;-2.296;0.001;0.000;0.000;
20190925_192701;0.263;9.328;-2.294;-0.000;0.001;-0.001;
20190925_192702;0.323;9.340;-2.301;0.003;0.000;-0.001;
20190925_192702;0.350;9.378;-2.318;0.001;0.000;-0.001;
20190925_192702;0.314;9.321;-2.294;0.001;-0.001;0.000;
20190925_192702;0.352;9.340;-2.342;-0.002;0.000;0.000;
20190925_192702;0.278;9.290;-2.298;0.001;0.000;0.000;
20190925_192702;0.350;9.294;-2.284;-0.000;0.000;0.000;
20190925_192702;0.304;9.335;-2.337;-0.000;0.000;0.000;
20190925_192702;0.285;9.318;-2.327;0.006;0.000;-0.002;
20190925_192702;0.338;9.297;-2.286;-0.001;0.000;0.000;
20190925_192703;0.290;9.311;-2.298;0.001;0.001;-0.001;
20190925_192703;0.350;9.349;-2.279;0.003;-0.001;-0.002;
20190925_192703;0.323;9.323;-2.308;-0.002;0.000;0.000;
20190925_192703;0.311;9.371;-2.294;0.003;-0.001;0.000;
20190925_192703;0.328;9.354;-2.308;0.002;-0.001;0.000;
20190925_192703;0.285;9.254;-2.291;-0.000;0.000;0.000;
20190925_192703;0.366;9.349;-2.330;0.003;-0.001;0.000;
20190925_192703;0.302;9.232;-2.320;-0.005;0.000;0.000;
20190925_192703;0.297;9.266;-2.286;0.001;0.000;-0.001;
20190925_192704;0.342;9.299;-2.310;-0.002;0.000;-0.001;
20190925_192704;0.306;9.299;-2.277;0.003;-0.001;-0.001;
20190925_192704;0.326;9.383;-2.282;-0.000;0.000;0.000;
20190925_192704;0.304;9.383;-2.289;-0.003;0.001;-0.001;
20190925_192704;0.323;9.388;-2.310;0.004;-0.001;-0.001;
20190925_192704;0.316;9.297;-2.301;-0.001;0.000;0.001;
20190925_192704;0.321;9.261;-2.310;-0.001;-0.001;0.000;
20190925_192704;0.294;9.215;-2.298;-0.000;0.001;0.000;
20190925_192704;0.342;9.340;-2.327;0.004;0.000;0.000;
20190925_192704;0.273;9.258;-2.298;-0.002;-0.001;0.000;
20190925_192705;0.340;9.392;-2.318;0.001;0.000;0.001;
20190925_192705;0.314;9.414;-2.308;-0.000;-0.001;-0.001;
20190925_192705;0.278;9.323;-2.282;-0.001;0.000;0.000;
20190925_192705;0.383;9.345;-2.303;0.001;-0.001;0.000;
20190925_192705;0.299;9.254;-2.313;-0.001;0.000;0.000;
20190925_192705;0.342;9.337;-2.308;0.004;-0.001;0.000;
20190925_192705;0.345;9.275;-2.291;-0.000;0.001;0.000;
20190925_192705;0.285;9.249;-2.301;-0.003;0.000;-0.001;
20190925_192705;0.294;9.306;-2.301;0.002;0.000;-0.001;
20190925_192706;0.347;9.335;-2.289;0.002;-0.001;0.000;
20190925_192706;0.297;9.347;-2.267;-0.000;0.001;0.000;
20190925_192706;0.338;9.328;-2.298;-0.001;0.000;0.000;
20190925_192706;0.292;9.278;-2.289;-0.001;0.000;-0.002;
20190925_192706;0.335;9.342;-2.284;0.006;0.000;-0.001;
20190925_192706;0.333;9.321;-2.294;-0.000;0.000;0.001;
20190925_192706;0.335;9.330;-2.272;-0.003;0.000;-0.001;
20190925_192706;0.359;9.342;-2.310;0.002;-0.001;0.000;
20190925_192706;0.311;9.268;-2.263;-0.004;0.000;0.000;
20190925_192707;0.309;9.385;-2.320;0.006;-0.001;0.000;
20190925_192707;0.271;9.282;-2.303;-0.003;0.001;0.000;
20190925_192707;0.323;9.376;-2.358;0.003;-0.001;-0.001;
20190925_192707;0.354;9.316;-2.354;-0.002;0.000;0.000;
20190925_192707;0.290;9.297;-2.310;0.002;0.000;-0.001;
20190925_192707;0.314;9.333;-2.296;0.002;-0.001;-0.001;
20190925_192707;0.342;9.301;-2.284;0.002;0.000;0.000;
20190925_192707;0.357;9.337;-2.298;0.005;-0.001;0.000;
20190925_192707;0.333;9.273;-2.229;-0.005;0.001;0.000;
20190925_192707;0.297;9.313;-2.284;0.001;0.000;0.000;
20190925_192708;0.304;9.313;-2.318;-0.001;0.000;0.000;
20190925_192708;0.342;9.347;-2.315;0.002;0.001;0.000;
20190925_192708;0.318;9.309;-2.308;-0.005;0.000;0.001;
20190925_192708;0.335;9.397;-2.344;-0.001;0.001;-0.001;
20190925_192708;0.318;9.390;-2.325;-0.001;0.000;-0.001;
20190925_192708;0.249;9.294;-2.298;-0.004;-0.001;0.000;
20190925_192708;0.311;9.309;-2.298;-0.000;0.000;0.000;
20190925_192708;0.273;9.208;-2.315;-0.003;0.000;-0.001;
20190925_192708;0.321;9.335;-2.313;0.002;-0.001;-0.001;
20190925_192708;0.287;9.292;-2.301;0.001;0.000;-0.001;
20190925_192709;0.335;9.337;-2.308;0.001;0.000;-0.001;
20190925_192709;0.342;9.392;-2.332;0.002;0.000;-0.001;
20190925_192709;0.314;9.366;-2.286;0.002;0.000;0.001;
20190925_192709;0.304;9.347;-2.291;-0.003;0.000;0.000;
20190925_192709;0.287;9.316;-2.301;-0.002;0.000;0.000;
20190925_192709;0.314;9.249;-2.320;0.000;-0.001;-0.001;
20190925_192709;0.280;9.273;-2.322;0.003;-0.001;-0.001;
20190925_192709;0.338;9.285;-2.294;0.002;-0.001;0.000;
20190925_192709;0.306;9.328;-2.308;0.000;0.000;-0.001;
20190925_192710;0.364;9.371;-2.284;0.002;-0.001;0.000;
20190925_192710;0.314;9.376;-2.330;-0.001;0.000;-0.001;
20190925_192710;0.338;9.385;-2.315;0.000;0.000;0.001;
20190925_192710;0.299;9.318;-2.327;0.000;0.000;-0.001;
20190925_192710;0.278;9.254;-2.313;-0.003;0.000;0.000;
20190925_192710;0.362;9.270;-2.322;-0.002;0.000;0.000;
20190925_192710;0.299;9.266;-2.301;0.000;0.001;-0.001;
20190925_192710;0.369;9.309;-2.320;0.004;-0.001;0.000;
20190925_192710;0.290;9.335;-2.306;0.002;0.000;-0.001;
20190925_192710;0.316;9.347;-2.289;0.000;0.000;-0.001;
20190925_192711;0.338;9.392;-2.325;0.000;0.001;0.000;
20190925_192711;0.273;9.294;-2.277;-0.005;0.000;0.000;
20190925_192711;0.330;9.342;-2.310;0.003;-0.001;-0.001;
20190925_192711;0.283;9.313;-2.303;-0.001;-0.001;-0.001;
20190925_192711;0.290;9.285;-2.279;-0.003;0.000;0.000;
20190925_192711;0.283;9.342;-2.306;-0.001;0.000;-0.001;
20190925_192711;0.326;9.220;-2.282;0.000;-0.001;0.000;
20190925_192711;0.292;9.306;-2.298;0.004;-0.001;-0.001;
20190925_192711;0.321;9.301;-2.322;-0.001;0.000;0.001;
20190925_192711;0.294;9.376;-2.306;0.000;0.000;-0.001;
20190925_192712;0.354;9.335;-2.313;0.002;0.000;0.000;
20190925_192712;0.323;9.376;-2.322;0.003;0.000;-0.001;
20190925_192712;0.340;9.385;-2.358;0.006;0.000;-0.001;
20190925_192712;0.311;9.278;-2.308;-0.001;0.001;-0.001;
20190925_192712;0.347;9.290;-2.310;-0.001;0.000;0.000;
20190925_192712;0.302;9.316;-2.356;0.004;0.000;0.000;
20190925_192712;0.306;9.309;-2.318;0.000;0.000;-0.001;
20190925_192712;0.352;9.333;-2.286;-0.001;0.000;0.001;
20190925_192712;0.362;9.371;-2.315;0.000;0.000;-0.001;
20190925_192713;0.283;9.373;-2.332;0.000;0.000;0.000;
20190925_192713;0.357;9.409;-2.315;0.002;0.000;-0.001;
20190925_192713;0.283;9.342;-2.313;-0.002;0.000;-0.001;
20190925_192713;0.247;9.301;-2.296;-0.002;0.000;-0.001;
20190925_192713;0.342;9.285;-2.318;0.002;0.000;-0.001;
20190925_192713;0.290;9.268;-2.282;0.002;0.000;-0.001;
20190925_192713;0.354;9.311;-2.294;0.000;0.000;0.000;
20190925_192713;0.345;9.345;-2.337;0.003;0.000;0.000;
20190925_192713;0.321;9.347;-2.315;0.003;0.000;-0.001;
20190925_192714;0.376;9.349;-2.315;0.000;-0.001;0.000;
20190925_192714;0.326;9.359;-2.274;-0.001;0.000;0.002;
20190925_192714;0.338;9.366;-2.282;-0.003;0.001;0.000;
20190925_192714;0.328;9.323;-2.310;-0.001;0.000;0.000;
20190925_192714;0.342;9.342;-2.346;0.004;0.000;-0.001;
20190925_192714;0.311;9.282;-2.272;0.002;-0.001;-0.001;
20190925_192714;0.330;9.249;-2.322;-0.001;0.000;-0.001;
20190925_192714;0.323;9.239;-2.284;0.002;0.000;0.000;
20190925_192714;0.364;9.270;-2.279;0.001;0.000;0.000;
20190925_192714;0.292;9.335;-2.265;0.000;0.001;-0.001;
20190925_192715;0.352;9.333;-2.272;0.001;-0.001;0.000;
20190925_192715;0.251;9.388;-2.313;0.000;0.000;0.000;
20190925_192715;0.311;9.333;-2.298;-0.001;0.000;0.000;
20190925_192715;0.290;9.333;-2.298;0.001;0.000;-0.001;
20190925_192715;0.326;9.316;-2.327;0.002;-0.001;-0.001;
20190925_192715;0.333;9.316;-2.346;0.000;0.000;0.000;
20190925_192715;0.306;9.275;-2.296;-0.003;0.000;-0.001;
20190925_192715;0.278;9.278;-2.303;0.000;-0.001;-0.001;
20190925_192715;0.304;9.270;-2.270;-0.001;0.000;0.000;
20190925_192716;0.292;9.330;-2.315;0.001;-0.001;-0.002;
20190925_192716;0.340;9.321;-2.270;0.001;0.000;0.000;
20190925_192716;0.316;9.340;-2.296;0.002;-0.001;-0.001;
20190925_192716;0.357;9.347;-2.296;0.000;0.000;-0.001;
20190925_192716;0.345;9.304;-2.325;0.002;0.000;-0.001;
20190925_192716;0.323;9.299;-2.332;0.001;-0.001;0.000;
20190925_192716;0.294;9.292;-2.349;0.003;0.001;-0.001;
20190925_192716;0.309;9.354;-2.327;0.000;-0.001;0.000;
20190925_192716;0.290;9.316;-2.356;-0.003;-0.001;0.000;
20190925_192716;0.340;9.328;-2.286;-0.002;0.000;0.000;
20190925_192717;0.294;9.268;-2.306;-0.002;-0.002;0.000;
20190925_192717;0.292;9.273;-2.308;-0.002;0.000;0.002;
20190925_192717;0.357;9.352;-2.286;0.003;0.000;-0.001;
20190925_192717;0.328;9.292;-2.265;-0.003;0.001;0.000;
20190925_192717;0.309;9.357;-2.310;0.002;0.000;-0.001;
20190925_192717;0.311;9.352;-2.308;0.002;0.000;-0.001;
20190925_192717;0.314;9.359;-2.325;-0.001;-0.001;-0.001;
20190925_192717;0.316;9.328;-2.351;-0.002;0.000;-0.001;
20190925_192717;0.309;9.287;-2.318;0.000;0.000;-0.001;
20190925_192718;0.342;9.297;-2.327;0.000;0.000;0.000;
20190925_192718;0.311;9.256;-2.308;0.003;0.000;-0.001;
20190925_192718;0.350;9.354;-2.286;0.001;-0.002;0.000;
20190925_192718;0.309;9.292;-2.291;-0.001;-0.001;0.000;
20190925_192718;0.357;9.340;-2.284;0.006;0.000;-0.001;
20190925_192718;0.309;9.354;-2.272;0.000;0.001;0.000;
20190925_192718;0.347;9.340;-2.284;-0.001;0.000;0.000;
20190925_192718;0.347;9.309;-2.318;0.000;-0.001;0.000;
20190925_192718;0.314;9.313;-2.318;0.001;0.000;0.000;
20190925_192718;0.335;9.297;-2.337;0.001;-0.001;0.000;
20190925_192719;0.318;9.366;-2.373;0.004;0.000;-0.001;
20190925_192719;0.314;9.333;-2.289;-0.001;0.001;-0.001;
20190925_192719;0.345;9.316;-2.308;-0.001;0.000;-0.001;
20190925_192719;0.280;9.352;-2.325;0.003;0.000;0.000;
20190925_192719;0.333;9.270;-2.253;0.000;-0.001;-0.001;
20190925_192719;0.297;9.354;-2.298;0.001;0.000;0.001;
20190925_192719;0.306;9.328;-2.296;0.003;0.000;0.000;
20190925_192719;0.381;9.313;-2.310;0.002;-0.001;0.000;
20190925_192719;0.304;9.359;-2.301;0.000;0.000;-0.001;
20190925_192720;0.330;9.330;-2.325;-0.003;0.000;-0.001;
20190925_192720;0.330;9.352;-2.320;0.004;0.000;0.000;
20190925_192720;0.263;9.330;-2.327;0.001;0.001;-0.001;
20190925_192720;0.318;9.292;-2.310;-0.001;0.001;-0.001;
20190925_192720;0.316;9.282;-2.270;0.000;0.002;0.000;
20190925_192720;0.340;9.318;-2.263;0.002;-0.001;-0.001;
20190925_192720;0.345;9.287;-2.298;0.001;-0.001;0.000;
20190925_192720;0.266;9.325;-2.265;0.000;0.000;0.000;
20190925_192720;0.306;9.330;-2.298;0.001;0.000;0.000;
20190925_192721;0.345;9.325;-2.318;0.003;0.000;0.000;
20190925_192721;0.333;9.364;-2.306;0.003;0.000;0.000;
20190925_192721;0.314;9.301;-2.342;-0.003;0.000;-0.001;
20190925_192721;0.306;9.352;-2.325;0.000;0.000;0.000;
20190925_192721;0.299;9.268;-2.306;-0.003;0.001;0.000;
20190925_192721;0.347;9.328;-2.337;0.000;-0.001;-0.001;
20190925_192721;0.318;9.282;-2.301;-0.001;-0.001;0.001;
20190925_192721;0.316;9.347;-2.298;0.000;-0.002;-0.001;
20190925_192721;0.285;9.335;-2.303;-0.001;0.000;-0.001;
20190925_192721;0.299;9.311;-2.267;0.001;-0.001;0.000;
20190925_192722;0.297;9.371;-2.284;0.001;0.000;-0.001;
20190925_192722;0.306;9.349;-2.310;0.004;0.001;-0.001;
20190925_192722;0.350;9.352;-2.332;-0.001;0.000;0.000;
20190925_192722;0.318;9.345;-2.322;-0.002;0.000;0.001;
20190925_192722;0.350;9.263;-2.301;-0.004;0.000;0.001;
20190925_192722;0.364;9.270;-2.313;0.001;0.000;-0.001;
20190925_192722;0.278;9.297;-2.325;0.000;0.000;-0.001;
20190925_192722;0.402;9.309;-2.277;-0.002;-0.001;0.000;
20190925_192722;0.328;9.328;-2.282;0.000;0.000;0.000;
20190925_192722;0.311;9.380;-2.291;0.000;0.001;0.000;
20190925_192723;0.366;9.369;-2.339;-0.001;0.000;0.000;
20190925_192723;0.278;9.373;-2.277;0.001;0.001;-0.002;
20190925_192723;0.357;9.349;-2.286;0.001;0.000;0.000;
20190925_192723;0.316;9.251;-2.327;-0.001;0.000;-0.001;
20190925_192723;0.294;9.292;-2.301;0.000;0.000;0.000;
20190925_192723;0.273;9.280;-2.318;-0.005;0.001;0.000;
20190925_192723;0.220;9.268;-2.337;0.002;0.001;-0.001;
20190925_192723;0.316;9.311;-2.291;0.003;-0.001;-0.001;
20190925_192723;0.290;9.354;-2.363;0.002;0.000;0.000;
20190925_192724;0.352;9.333;-2.263;-0.001;0.000;0.000;
20190925_192724;0.321;9.342;-2.306;-0.001;-0.001;0.000;
20190925_192724;0.345;9.349;-2.303;-0.001;0.000;0.000;
20190925_192724;0.342;9.342;-2.308;0.007;-0.001;-0.001;
20190925_192724;0.259;9.333;-2.344;0.002;0.001;0.000;
20190925_192724;0.321;9.285;-2.327;-0.001;-0.001;0.000;
20190925_192724;0.287;9.357;-2.349;0.002;-0.001;0.000;
20190925_192724;0.347;9.318;-2.334;-0.001;0.000;-0.001;
20190925_192724;0.345;9.316;-2.267;-0.001;0.000;-0.001;
20190925_192725;0.311;9.345;-2.298;0.001;-0.001;0.000;
20190925_192725;0.299;9.318;-2.284;-0.002;0.002;0.000;
20190925_192725;0.342;9.412;-2.298;0.002;-0.002;-0.001;
20190925_192725;0.359;9.373;-2.294;-0.001;-0.001;-0.001;
20190925_192725;0.273;9.299;-2.284;0.000;0.002;0.000;
20190925_192725;0.323;9.299;-2.334;0.000;-0.001;-0.001;
20190925_192725;0.254;9.321;-2.301;0.001;0.001;-0.001;
20190925_192725;0.273;9.323;-2.296;0.001;0.000;0.000;
20190925_192725;0.333;9.268;-2.289;-0.002;-0.001;0.000;
20190925_192726;0.290;9.376;-2.325;0.003;0.000;0.000;
20190925_192726;0.328;9.354;-2.306;-0.003;-0.001;-0.001;
20190925_192726;0.280;9.335;-2.310;0.000;0.001;0.000;
20190925_192726;0.364;9.385;-2.349;0.004;0.000;-0.002;
20190925_192726;0.311;9.313;-2.313;-0.006;0.001;0.000;
20190925_192726;0.340;9.294;-2.265;-0.001;0.000;0.000;
20190925_192726;0.340;9.278;-2.308;0.003;-0.001;0.000;
20190925_192726;0.347;9.268;-2.330;0.003;-0.002;-0.001;
20190925_192726;0.366;9.402;-2.337;0.002;0.000;0.000;
20190925_192726;0.318;9.383;-2.356;0.000;0.000;0.000;
20190925_192727;0.326;9.345;-2.274;-0.003;-0.001;0.000;
20190925_192727;0.347;9.395;-2.442;0.005;-0.001;-0.001;
20190925_192727;0.299;9.301;-2.322;0.001;0.000;-0.002;
20190925_192727;0.366;9.318;-2.291;0.004;0.000;-0.001;
20190925_192727;0.292;9.299;-2.325;0.002;0.000;-0.001;
20190925_192727;0.338;9.273;-2.291;-0.003;0.001;-0.001;
20190925_192727;0.316;9.311;-2.308;0.006;0.000;-0.001;
20190925_192727;0.285;9.347;-2.301;-0.001;0.002;-0.001;
20190925_192727;0.345;9.335;-2.322;0.002;0.000;0.000;
20190925_192728;0.326;9.376;-2.330;0.000;-0.001;0.000;
20190925_192728;0.261;9.342;-2.313;0.001;-0.001;-0.001;
20190925_192728;0.352;9.357;-2.337;0.001;0.000;-0.001;
20190925_192728;0.287;9.254;-2.306;0.001;0.000;0.000;
20190925_192728;0.407;9.414;-2.332;0.000;-0.001;0.000;
20190925_192728;0.309;9.167;-2.246;-0.003;0.001;0.000;
20190925_192728;0.383;9.390;-2.272;0.002;0.000;0.000;
20190925_192728;0.302;9.342;-2.296;0.000;-0.001;0.000;
20190925_192728;0.292;9.304;-2.296;0.008;-0.001;-0.001;
20190925_192729;0.362;9.352;-2.286;0.004;-0.002;0.000;
20190925_192729;0.316;9.340;-2.322;0.000;0.001;-0.001;
20190925_192729;0.314;9.311;-2.313;0.002;-0.001;-0.001;
20190925_192729;0.335;9.366;-2.322;0.001;0.000;-0.001;
20190925_192729;0.302;9.347;-2.332;0.001;0.001;-0.001;
20190925_192729;0.390;9.287;-2.282;-0.004;-0.001;-0.001;
20190925_192729;0.311;9.299;-2.308;0.002;-0.001;-0.001;
20190925_192729;0.287;9.273;-2.286;0.001;0.000;0.000;
20190925_192729;0.273;9.330;-2.289;-0.001;0.000;0.000;
20190925_192730;0.275;9.299;-2.310;-0.001;-0.001;0.000;
20190925_192730;0.340;9.313;-2.298;0.002;-0.001;0.000;
20190925_192730;0.369;9.366;-2.306;0.001;0.000;0.001;
20190925_192730;0.323;9.287;-2.272;-0.003;0.000;0.000;
20190925_192730;0.345;9.311;-2.294;0.000;0.000;0.000;
20190925_192730;0.381;9.280;-2.342;0.000;-0.001;-0.001;
20190925_192730;0.283;9.318;-2.327;0.001;0.000;-0.001;
20190925_192730;0.321;9.280;-2.301;-0.002;-0.001;0.000;
20190925_192730;0.321;9.323;-2.315;0.001;0.001;-0.001;
20190925_192730;0.311;9.311;-2.294;0.000;0.000;0.000;
20190925_192731;0.340;9.306;-2.294;-0.004;0.000;0.000;
20190925_192731;0.278;9.323;-2.282;0.003;-0.001;-0.001;
20190925_192731;0.306;9.294;-2.286;-0.003;0.001;-0.001;
20190925_192731;0.318;9.311;-2.318;0.002;0.000;0.000;
20190925_192731;0.280;9.244;-2.289;-0.001;0.001;-0.001;
20190925_192731;0.309;9.321;-2.332;-0.001;0.000;0.000;
20190925_192731;0.306;9.306;-2.301;0.002;0.000;0.000;
20190925_192731;0.335;9.328;-2.332;0.000;-0.002;0.001;
20190925_192731;0.294;9.337;-2.284;-0.002;0.001;0.000;
20190925_192732;0.340;9.354;-2.301;-0.002;-0.001;-0.001;
20190925_192732;0.376;9.342;-2.313;0.002;-0.001;0.000;
20190925_192732;0.239;9.254;-2.286;-0.004;0.000;-0.001;
20190925_192732;0.357;9.301;-2.330;0.002;-0.002;0.000;
20190925_192732;0.294;9.311;-2.258;0.002;0.000;-0.001;
20190925_192732;0.287;9.371;-2.325;0.000;0.001;0.000;
20190925_192732;0.330;9.354;-2.342;-0.003;0.000;0.000;
20190925_192732;0.326;9.347;-2.313;-0.001;0.000;-0.001;
20190925_192732;0.333;9.388;-2.433;0.004;0.000;-0.001;
20190925_192733;0.306;9.297;-2.251;0.003;0.000;0.000;
20190925_192733;0.321;9.311;-2.296;0.001;-0.001;-0.001;
20190925_192733;0.304;9.282;-2.282;-0.005;0.000;0.000;
20190925_192733;0.362;9.275;-2.279;-0.001;-0.001;0.000;
20190925_192733;0.311;9.297;-2.248;0.001;0.000;0.000;
20190925_192733;0.328;9.287;-2.210;-0.001;-0.001;-0.001;
20190925_192733;0.326;9.342;-2.306;0.001;-0.001;-0.001;
20190925_192733;0.318;9.347;-2.308;0.003;0.000;-0.001;
20190925_192733;0.371;9.371;-2.301;0.003;0.000;-0.001;
20190925_192733;0.318;9.380;-2.358;0.001;0.000;-0.001;
20190925_192734;0.385;9.376;-2.303;-0.006;-0.001;0.000;
20190925_192734;0.294;9.299;-2.303;0.000;0.001;0.000;
20190925_192734;0.244;9.218;-2.298;0.003;0.000;-0.001;
20190925_192734;0.318;9.290;-2.267;-0.002;-0.001;-0.001;
20190925_192734;0.318;9.299;-2.251;0.001;0.001;0.000;
20190925_192734;0.268;9.299;-2.327;-0.003;-0.001;-0.001;
20190925_192734;0.369;9.361;-2.272;0.000;-0.002;0.000;
20190925_192734;0.254;9.373;-2.301;0.000;0.000;0.000;
20190925_192734;0.338;9.347;-2.243;0.001;-0.001;0.002;
20190925_192735;0.333;9.345;-2.387;0.001;0.001;0.002;
20190925_192735;0.335;9.333;-2.301;0.011;-0.001;-0.001;
20190925_192735;0.357;9.261;-2.354;-0.003;-0.001;0.002;
20190925_192735;0.314;9.273;-2.303;0.000;-0.001;-0.001;
20190925_192735;0.359;9.292;-2.318;0.000;0.000;-0.001;
20190925_192735;0.326;9.306;-2.337;0.004;0.000;-0.001;
20190925_192735;0.395;9.361;-2.282;0.004;-0.001;-0.001;
20190925_192735;0.383;9.354;-2.263;0.004;0.000;-0.001;
20190925_192735;0.275;9.333;-2.294;0.000;0.000;-0.002;
20190925_192736;0.342;9.380;-2.346;0.002;-0.001;-0.001;
20190925_192736;0.263;9.347;-2.313;0.001;0.000;0.000;
20190925_192736;0.271;9.306;-2.301;-0.002;0.000;0.000;
20190925_192736;0.333;9.304;-2.358;-0.003;-0.002;0.000;
20190925_192736;0.261;9.306;-2.363;0.000;0.000;-0.001;
20190925_192736;0.309;9.251;-2.310;0.004;-0.001;-0.001;
20190925_192736;0.261;9.263;-2.330;0.000;0.000;0.000;
20190925_192736;0.364;9.292;-2.382;-0.004;-0.002;0.000;
20190925_192736;0.330;9.349;-2.260;0.010;0.000;0.000;
20190925_192736;0.326;9.376;-2.286;-0.002;-0.001;-0.001;
20190925_192737;0.357;9.313;-2.296;-0.002;0.000;0.000;
20190925_192737;0.330;9.347;-2.339;0.002;-0.001;-0.001;
20190925_192737;0.371;9.268;-2.296;-0.003;0.000;0.002;
20190925_192737;0.316;9.249;-2.306;-0.001;0.001;-0.001;
20190925_192737;0.309;9.258;-2.310;-0.001;0.000;0.000;
20190925_192737;0.304;9.299;-2.294;0.002;0.000;0.002;
20190925_192737;0.316;9.335;-2.325;0.007;-0.001;-0.001;
20190925_192737;0.299;9.347;-2.296;-0.002;0.000;0.000;
20190925_192737;0.283;9.354;-2.272;-0.002;0.000;-0.001;
20190925_192738;0.330;9.335;-2.298;0.000;-0.001;0.000;
20190925_192738;0.268;9.287;-2.320;-0.002;0.001;0.000;
20190925_192738;0.338;9.282;-2.277;-0.002;0.000;-0.001;
20190925_192738;0.340;9.239;-2.310;-0.002;0.000;0.000;
20190925_192738;0.287;9.280;-2.277;0.002;-0.001;-0.001;
20190925_192738;0.321;9.261;-2.284;-0.001;-0.001;0.000;
20190925_192738;0.251;9.371;-2.332;-0.002;0.001;0.000;
20190925_192738;0.338;9.304;-2.253;-0.006;0.000;0.000;
20190925_192738;0.309;9.364;-2.313;0.000;0.000;-0.001;
20190925_192738;0.328;9.354;-2.306;-0.001;0.000;-0.001;
20190925_192739;0.323;9.297;-2.291;-0.002;0.000;0.000;
20190925_192739;0.352;9.359;-2.320;0.004;-0.001;-0.001;
20190925_192739;0.290;9.278;-2.289;-0.001;0.001;-0.001;
20190925_192739;0.362;9.328;-2.339;0.000;-0.001;0.000;
20190925_192739;0.347;9.311;-2.320;0.001;-0.001;0.000;
20190925_192739;0.302;9.335;-2.310;0.001;-0.001;0.001;
20190925_192739;0.316;9.335;-2.294;0.001;0.000;0.000;
20190925_192739;0.283;9.309;-2.303;-0.002;0.000;0.000;
20190925_192739;0.321;9.390;-2.308;0.000;0.000;0.000;
20190925_192740;0.342;9.275;-2.320;-0.001;0.000;0.000;
20190925_192740;0.352;9.330;-2.315;0.001;0.000;0.000;
20190925_192740;0.359;9.323;-2.303;0.000;-0.001;-0.001;
20190925_192740;0.292;9.275;-2.322;-0.001;0.000;0.000;
20190925_192740;0.321;9.366;-2.306;0.004;0.000;-0.001;
20190925_192740;0.347;9.325;-2.325;-0.003;-0.001;0.000;
20190925_192740;0.304;9.333;-2.337;0.005;-0.001;-0.001;
20190925_192740;0.345;9.321;-2.294;-0.001;-0.001;-0.001;
20190925_192740;0.326;9.323;-2.327;0.001;-0.001;-0.001;
20190925_192740;0.302;9.306;-2.303;-0.001;0.000;0.000;
20190925_192741;0.326;9.349;-2.298;-0.002;0.001;-0.002;
20190925_192741;0.362;9.323;-2.315;0.001;0.000;0.000;
20190925_192741;0.287;9.275;-2.272;-0.002;0.000;0.000;
20190925_192741;0.335;9.309;-2.315;0.000;0.000;0.000;
20190925_192741;0.294;9.268;-2.277;-0.003;-0.001;0.001;
20190925_192741;0.302;9.333;-2.313;0.001;0.000;-0.001;
20190925_192741;0.302;9.290;-2.298;0.001;0.000;0.000;
20190925_192741;0.292;9.347;-2.346;0.003;0.000;0.000;
20190925_192741;0.350;9.335;-2.308;0.000;-0.001;0.000;
20190925_192742;0.304;9.347;-2.342;0.002;0.000;0.000;
20190925_192742;0.414;9.349;-2.356;0.002;-0.001;0.000;
20190925_192742;0.340;9.333;-2.351;0.002;0.000;0.000;
20190925_192742;0.306;9.285;-2.308;-0.003;0.000;-0.001;
20190925_192742;0.376;9.268;-2.277;-0.001;0.000;0.000;
20190925_192742;0.311;9.254;-2.277;0.004;0.000;-0.001;
20190925_192742;0.347;9.335;-2.296;-0.001;0.000;-0.001;
20190925_192742;0.311;9.306;-2.284;-0.003;-0.001;-0.001;
20190925_192742;0.294;9.376;-2.351;-0.002;0.000;0.000;
20190925_192743;0.323;9.359;-2.356;0.004;0.000;-0.002;
20190925_192743;0.314;9.285;-2.301;-0.002;0.000;0.000;
20190925_192743;0.323;9.357;-2.298;0.001;0.000;0.000;
20190925_192743;0.359;9.278;-2.303;-0.002;0.000;0.000;
20190925_192743;0.280;9.290;-2.294;0.003;-0.001;-0.001;
20190925_192743;0.306;9.369;-2.298;0.001;-0.001;0.000;
20190925_192743;0.290;9.316;-2.315;0.001;0.000;-0.001;
20190925_192743;0.304;9.258;-2.318;-0.001;-0.001;0.000;
20190925_192743;0.335;9.395;-2.337;0.002;0.000;0.000;
20190925_192744;0.268;9.369;-2.296;0.000;0.000;-0.001;
20190925_192744;0.357;9.278;-2.310;0.000;-0.001;0.001;
20190925_192744;0.309;9.340;-2.318;0.000;-0.001;0.001;
20190925_192744;0.390;9.309;-2.303;0.000;-0.001;0.000;
20190925_192744;0.362;9.323;-2.325;0.001;0.000;0.000;
20190925_192744;0.316;9.297;-2.306;-0.001;-0.001;0.000;
20190925_192744;0.318;9.361;-2.303;0.000;0.000;-0.001;
20190925_192744;0.314;9.294;-2.277;-0.001;-0.001;0.000;
20190925_192744;0.316;9.373;-2.306;-0.001;-0.001;0.000;
20190925_192744;0.330;9.335;-2.308;-0.001;-0.001;0.000;
20190925_192745;0.335;9.311;-2.267;-0.002;0.001;-0.001;
20190925_192745;0.345;9.251;-2.286;-0.002;-0.001;0.001;
20190925_192745;0.268;9.333;-2.327;0.000;-0.001;0.000;
20190925_192745;0.314;9.304;-2.344;0.005;0.000;-0.001;
20190925_192745;0.302;9.342;-2.346;0.004;-0.001;-0.002;
20190925_192745;0.306;9.333;-2.313;0.003;0.000;0.000;
20190925_192745;0.280;9.335;-2.322;-0.003;0.000;0.000;
20190925_192745;0.280;9.290;-2.389;-0.003;-0.001;-0.002;
20190925_192745;0.316;9.294;-2.310;0.009;0.001;-0.001;
20190925_192746;0.314;9.318;-2.306;0.001;-0.001;0.000;
20190925_192746;0.362;9.290;-2.296;0.001;-0.001;0.000;
20190925_192746;0.316;9.266;-2.279;-0.004;0.000;0.000;
20190925_192746;0.306;9.321;-2.322;0.003;0.000;-0.001;
20190925_192746;0.323;9.337;-2.294;-0.002;0.000;0.000;
20190925_192746;0.271;9.323;-2.344;0.003;0.001;0.000;
20190925_192746;0.309;9.328;-2.289;-0.002;0.000;-0.001;
20190925_192746;0.326;9.342;-2.306;0.000;0.000;0.000;
20190925_192746;0.340;9.278;-2.313;-0.005;0.000;0.000;
20190925_192746;0.275;9.342;-2.291;0.002;0.000;-0.001;
20190925_192747;0.292;9.333;-2.296;-0.004;0.000;-0.001;
20190925_192747;0.283;9.373;-2.274;-0.001;0.000;0.000;
20190925_192747;0.287;9.297;-2.243;-0.003;0.001;-0.001;
20190925_192747;0.290;9.309;-2.327;0.002;0.000;-0.001;
20190925_192747;0.323;9.285;-2.306;0.001;0.000;0.000;
20190925_192747;0.311;9.266;-2.306;-0.001;-0.001;0.000;
20190925_192747;0.321;9.306;-2.306;0.005;-0.002;-0.001;
20190925_192747;0.328;9.301;-2.284;-0.001;0.000;0.000;
20190925_192747;0.287;9.366;-2.320;-0.001;0.001;0.001;
20190925_192748;0.328;9.378;-2.318;-0.004;-0.001;0.001;
20190925_192748;0.328;9.361;-2.318;0.002;0.000;-0.001;
20190925_192748;0.318;9.292;-2.315;-0.002;-0.001;0.001;
20190925_192748;0.304;9.258;-2.291;-0.002;0.000;-0.001;
20190925_192748;0.314;9.256;-2.272;0.001;0.000;-0.001;
20190925_192748;0.330;9.244;-2.306;0.001;-0.001;-0.001;
20190925_192748;0.249;9.258;-2.253;0.000;0.000;-0.002;
20190925_192748;0.366;9.404;-2.330;0.003;-0.001;0.001;
20190925_192748;0.285;9.347;-2.306;0.000;0.000;-0.002;
20190925_192748;0.371;9.426;-2.342;-0.001;0.000;0.001;
20190925_192749;0.357;9.385;-2.330;-0.002;0.000;0.002;
20190925_192749;0.304;9.306;-2.315;-0.003;0.000;0.001;
20190925_192749;0.359;9.270;-2.332;0.002;-0.001;-0.001;
20190925_192749;0.314;9.306;-2.303;-0.001;-0.001;0.001;
20190925_192749;0.352;9.189;-2.274;-0.004;0.000;0.001;
20190925_192749;0.321;9.311;-2.282;0.001;0.000;0.001;
20190925_192749;0.338;9.340;-2.272;0.002;0.000;0.001;
20190925_192749;0.302;9.309;-2.272;0.001;0.001;-0.001;
20190925_192749;0.345;9.409;-2.315;0.000;-0.002;0.001;
20190925_192750;0.328;9.366;-2.330;0.002;-0.002;-0.001;
20190925_192750;0.328;9.357;-2.334;0.002;-0.001;0.001;
20190925_192750;0.316;9.390;-2.358;0.001;0.000;-0.001;
20190925_192750;0.299;9.285;-2.315;-0.004;0.000;0.001;
20190925_192750;0.323;9.321;-2.320;-0.003;-0.001;0.002;
20190925_192750;0.285;9.222;-2.318;-0.001;0.001;-0.001;
20190925_192750;0.330;9.290;-2.306;0.002;-0.001;0.001;
20190925_192750;0.330;9.301;-2.251;0.001;0.000;-0.001;
20190925_192750;0.299;9.254;-2.198;0.000;0.000;0.001;
20190925_192750;0.309;9.366;-2.289;0.003;-0.002;-0.001;
20190925_192751;0.321;9.345;-2.301;0.000;0.000;0.001;
20190925_192751;0.347;9.433;-2.349;-0.001;0.000;-0.001;
20190925_192751;0.338;9.402;-2.351;0.000;0.000;0.001;
20190925_192751;0.318;9.311;-2.361;-0.004;0.000;0.001;
20190925_192751;0.347;9.275;-2.356;-0.001;0.000;0.001;
20190925_192751;0.287;9.301;-2.373;0.000;0.000;0.001;
20190925_192751;0.316;9.227;-2.298;-0.001;0.000;-0.001;
20190925_192751;0.306;9.234;-2.272;0.000;0.000;0.001;
20190925_192751;0.294;9.321;-2.272;0.000;0.000;-0.002;
20190925_192752;0.354;9.383;-2.277;0.002;-0.001;0.001;
20190925_192752;0.318;9.385;-2.289;-0.003;-0.001;0.001;
20190925_192752;0.340;9.402;-2.291;-0.001;0.000;0.001;
20190925_192752;0.366;9.323;-2.330;-0.003;-0.001;0.001;
20190925_192752;0.321;9.287;-2.346;-0.002;0.000;-0.001;
20190925_192752;0.352;9.246;-2.308;-0.002;0.000;-0.001;
20190925_192752;0.297;9.218;-2.339;0.000;0.000;-0.001;
20190925_192752;0.299;9.249;-2.318;-0.001;0.000;-0.001;
20190925_192752;0.321;9.364;-2.313;0.004;-0.001;-0.001;
20190925_192753;0.311;9.354;-2.286;-0.003;0.001;0.001;
20190925_192753;0.340;9.428;-2.306;0.003;-0.001;-0.001;
20190925_192753;0.314;9.364;-2.301;-0.001;-0.001;0.002;
20190925_192753;0.280;9.333;-2.296;-0.004;0.000;0.002;
20190925_192753;0.340;9.275;-2.308;-0.005;0.000;0.001;
20190925_192753;0.283;9.251;-2.313;-0.001;0.001;0.001;
20190925_192753;0.316;9.210;-2.315;0.000;-0.001;-0.001;
20190925_192753;0.299;9.297;-2.318;0.003;0.001;0.001;
20190925_192753;0.321;9.309;-2.320;-0.001;0.000;0.001;
20190925_192754;0.330;9.342;-2.315;-0.001;-0.001;-0.001;
20190925_192754;0.311;9.402;-2.349;0.003;0.000;-0.001;
20190925_192754;0.311;9.376;-2.310;0.001;-0.001;0.001;
20190925_192754;0.316;9.337;-2.303;-0.001;0.000;0.001;
20190925_192754;0.323;9.297;-2.260;0.000;-0.001;-0.001;
20190925_192754;0.268;9.278;-2.279;-0.002;-0.001;0.002;
20190925_192754;0.338;9.352;-2.284;0.002;0.000;-0.001;
20190925_192754;0.350;9.294;-2.301;0.002;0.001;0.001;
20190925_192754;0.318;9.292;-2.337;0.001;0.000;-0.001;
20190925_192754;0.371;9.313;-2.315;0.000;0.000;-0.001;
20190925_192755;0.311;9.282;-2.282;-0.001;0.000;0.001;
20190925_192755;0.338;9.366;-2.296;0.000;0.000;-0.001;
20190925_192755;0.306;9.376;-2.310;0.001;0.000;-0.001;
20190925_192755;0.357;9.407;-2.358;0.002;0.000;-0.002;
20190925_192755;0.340;9.340;-2.289;-0.004;0.000;-0.001;
20190925_192755;0.287;9.299;-2.286;-0.003;0.000;-0.001;
20190925_192755;0.328;9.287;-2.330;0.000;0.000;-0.001;
20190925_192755;0.294;9.254;-2.320;0.000;0.000;-0.001;
20190925_192755;0.309;9.232;-2.296;-0.001;0.001;-0.001;
20190925_192756;0.345;9.347;-2.289;-0.001;0.001;0.001;
20190925_192756;0.299;9.380;-2.291;0.002;0.000;-0.001;
20190925_192756;0.294;9.359;-2.306;0.002;-0.001;0.001;
20190925_192756;0.340;9.378;-2.289;0.003;-0.001;0.001;
20190925_192756;0.287;9.347;-2.310;-0.001;0.000;-0.001;
20190925_192756;0.340;9.270;-2.267;-0.002;0.000;0.002;
20190925_192756;0.302;9.256;-2.318;0.001;-0.001;0.001;
20190925_192756;0.340;9.292;-2.332;0.001;-0.002;0.001;
20190925_192756;0.321;9.294;-2.315;0.001;0.001;-0.001;
20190925_192757;0.335;9.313;-2.301;0.003;0.000;-0.001;
20190925_192757;0.309;9.378;-2.313;-0.002;0.000;0.002;
20190925_192757;0.321;9.369;-2.344;0.000;0.000;-0.001;
20190925_192757;0.390;9.354;-2.339;0.002;-0.002;-0.001;
20190925_192757;0.314;9.261;-2.270;-0.004;-0.001;0.001;
20190925_192757;0.316;9.230;-2.277;0.000;0.000;-0.001;
20190925_192757;0.294;9.323;-2.298;-0.003;0.001;-0.001;
20190925_192757;0.278;9.376;-2.315;0.002;0.000;-0.002;
20190925_192757;0.321;9.335;-2.308;0.000;0.000;-0.001;
20190925_192757;0.259;9.407;-2.322;0.002;-0.001;-0.001;
20190925_192758;0.345;9.340;-2.310;-0.001;-0.001;-0.001;
20190925_192758;0.314;9.352;-2.332;-0.003;0.000;0.002;
20190925_192758;0.287;9.340;-2.318;0.001;0.000;-0.001;
20190925_192758;0.318;9.337;-2.267;0.001;-0.001;0.002;
20190925_192758;0.311;9.273;-2.320;0.000;0.000;0.002;
20190925_192758;0.290;9.342;-2.294;0.003;0.001;-0.001;
20190925_192758;0.338;9.345;-2.308;-0.004;0.000;0.001;
20190925_192758;0.328;9.349;-2.322;-0.001;-0.001;0.001;
20190925_192758;0.350;9.357;-2.315;-0.002;-0.001;0.001;
20190925_192759;0.306;9.311;-2.320;0.005;0.000;-0.001;
20190925_192759;0.347;9.309;-2.330;-0.002;0.000;0.001;
20190925_192759;0.287;9.333;-2.332;0.000;0.001;-0.001;
20190925_192759;0.357;9.256;-2.286;0.000;0.001;0.001;
20190925_192759;0.275;9.301;-2.320;0.001;0.000;-0.001;
20190925_192759;0.314;9.359;-2.310;0.001;-0.001;-0.001;
20190925_192759;0.283;9.347;-2.294;-0.001;0.000;0.001;
20190925_192759;0.369;9.323;-2.296;0.002;-0.001;0.001;
20190925_192759;0.347;9.352;-2.265;0.001;-0.001;0.001;
20190925_192759;0.297;9.278;-2.267;-0.005;0.000;0.002;
20190925_192800;0.342;9.301;-2.296;0.000;0.000;0.001;
20190925_192800;0.306;9.294;-2.298;0.002;0.000;-0.001;
20190925_192800;0.318;9.349;-2.334;-0.001;0.000;0.002;
20190925_192800;0.345;9.342;-2.306;0.000;-0.001;-0.001;
20190925_192800;0.287;9.335;-2.315;-0.002;0.000;0.001;
20190925_192800;0.369;9.304;-2.330;0.002;0.000;0.001;
20190925_192800;0.239;9.328;-2.322;0.000;0.000;-0.001;
20190925_192800;0.335;9.254;-2.296;-0.001;0.000;0.001;
20190925_192800;0.340;9.256;-2.286;0.000;0.000;-0.001;
20190925_192801;0.323;9.345;-2.315;-0.001;0.000;0.001;
20190925_192801;0.366;9.318;-2.310;-0.003;-0.001;0.001;
20190925_192801;0.297;9.321;-2.308;0.001;0.000;-0.001;
20190925_192801;0.350;9.397;-2.325;0.001;-0.001;-0.001;
20190925_192801;0.318;9.282;-2.325;-0.001;-0.001;0.001;
20190925_192801;0.254;9.273;-2.327;-0.006;0.000;-0.001;
20190925_192801;0.350;9.335;-2.313;0.001;-0.001;0.002;
20190925_192801;0.280;9.194;-2.260;-0.003;0.000;0.001;
20190925_192801;0.280;9.263;-2.291;0.004;0.000;-0.001;
20190925_192802;0.359;9.333;-2.318;0.003;0.000;0.001;
20190925_192802;0.373;9.378;-2.284;0.002;-0.001;0.002;
20190925_192802;0.330;9.380;-2.284;0.004;0.000;-0.001;
20190925_192802;0.335;9.330;-2.315;-0.002;0.000;0.001;
20190925_192802;0.275;9.392;-2.370;0.004;0.000;-0.002;
20190925_192802;0.352;9.325;-2.327;-0.004;0.000;0.001;
20190925_192802;0.292;9.268;-2.346;0.000;-0.001;0.001;
20190925_192802;0.330;9.309;-2.320;0.001;-0.001;0.001;
20190925_192802;0.347;9.280;-2.291;-0.002;-0.001;-0.001;
20190925_192803;0.292;9.335;-2.303;0.002;0.000;0.001;
20190925_192803;0.352;9.352;-2.284;-0.002;-0.002;0.001;
20190925_192803;0.280;9.335;-2.255;0.002;0.001;-0.001;
20190925_192803;0.326;9.419;-2.363;-0.001;-0.001;-0.001;
20190925_192803;0.266;9.256;-2.277;-0.006;0.000;-0.001;
20190925_192803;0.357;9.328;-2.325;0.001;-0.001;-0.001;
20190925_192803;0.297;9.246;-2.286;-0.003;0.000;0.001;
20190925_192803;0.280;9.270;-2.310;0.003;0.000;0.001;
20190925_192803;0.294;9.323;-2.330;0.002;0.000;-0.001;
20190925_192803;0.314;9.290;-2.289;0.000;0.000;-0.001;
20190925_192804;0.354;9.366;-2.334;0.003;-0.001;0.001;
20190925_192804;0.316;9.335;-2.282;0.002;-0.001;0.001;
20190925_192804;0.304;9.316;-2.330;0.000;-0.001;0.001;
20190925_192804;0.350;9.366;-2.306;-0.002;0.000;-0.001;
20190925_192804;0.352;9.270;-2.320;-0.002;0.000;0.001;
20190925_192804;0.326;9.337;-2.320;0.002;-0.001;0.001;
20190925_192804;0.304;9.258;-2.294;-0.001;0.000;-0.001;
20190925_192804;0.304;9.282;-2.325;0.002;0.000;-0.002;
20190925_192804;0.299;9.352;-2.310;0.001;-0.001;-0.001;
20190925_192805;0.285;9.256;-2.272;-0.003;0.002;0.001;
20190925_192805;0.352;9.364;-2.339;-0.001;0.000;0.001;
20190925_192805;0.259;9.328;-2.251;-0.001;0.000;0.000;
20190925_192805;0.383;9.325;-2.325;-0.003;0.000;0.000;
20190925_192805;0.290;9.328;-2.346;0.002;0.000;-0.001;
20190925_192805;0.314;9.352;-2.255;0.004;0.000;0.000;
20190925_192805;0.268;9.290;-2.282;0.000;0.000;-0.001;
20190925_192805;0.342;9.361;-2.358;-0.001;-0.001;0.000;
20190925_192805;0.278;9.242;-2.320;-0.004;0.000;0.000;
20190925_192805;0.364;9.333;-2.286;-0.002;-0.001;-0.001;
20190925_192806;0.266;9.215;-2.310;0.001;-0.001;-0.001;
20190925_192806;0.318;9.318;-2.291;0.000;-0.001;0.000;
20190925_192806;0.364;9.390;-2.318;0.002;-0.001;0.002;
20190925_192806;0.304;9.335;-2.294;0.000;0.000;-0.001;
20190925_192806;0.342;9.390;-2.308;0.003;0.000;-0.001;
20190925_192806;0.304;9.311;-2.354;-0.002;0.000;-0.001;
20190925_192806;0.333;9.290;-2.279;-0.003;0.000;-0.001;
20190925_192806;0.371;9.294;-2.318;-0.002;-0.002;0.000;
20190925_192806;0.278;9.294;-2.356;0.001;0.000;-0.001;
20190925_192807;0.338;9.352;-2.310;0.001;-0.001;-0.002;
20190925_192807;0.309;9.290;-2.303;0.000;0.000;0.000;
20190925_192807;0.311;9.337;-2.279;-0.001;0.000;0.000;
20190925_192807;0.330;9.316;-2.301;-0.002;0.000;0.000;
20190925_192807;0.340;9.304;-2.286;0.002;0.000;0.000;
20190925_192807;0.304;9.328;-2.296;0.001;0.001;0.000;
20190925_192807;0.299;9.333;-2.270;-0.001;0.000;0.000;
20190925_192807;0.330;9.371;-2.320;0.004;0.000;-0.001;
20190925_192807;0.309;9.325;-2.303;-0.001;-0.001;0.000;
20190925_192807;0.285;9.357;-2.330;0.002;0.000;0.000;
20190925_192808;0.359;9.323;-2.334;-0.001;-0.001;-0.001;
20190925_192808;0.266;9.361;-2.322;0.002;0.000;-0.001;
20190925_192808;0.352;9.304;-2.315;0.002;0.000;-0.002;
20190925_192808;0.321;9.275;-2.296;0.000;0.000;-0.001;
20190925_192808;0.285;9.263;-2.274;-0.001;-0.001;0.000;
20190925_192808;0.333;9.316;-2.296;0.003;0.000;-0.001;
20190925_192808;0.297;9.335;-2.272;-0.001;0.000;0.000;
20190925_192808;0.285;9.335;-2.315;0.001;0.000;-0.001;
20190925_192808;0.299;9.373;-2.318;0.000;-0.001;-0.001;
20190925_192809;0.330;9.359;-2.349;0.000;0.000;-0.001;
20190925_192809;0.381;9.275;-2.296;0.004;-0.001;-0.002;
20190925_192809;0.311;9.340;-2.358;0.000;-0.001;-0.001;
20190925_192809;0.340;9.266;-2.342;-0.003;-0.001;0.000;
20190925_192809;0.306;9.297;-2.286;-0.002;0.000;0.000;
20190925_192809;0.373;9.263;-2.298;-0.002;0.000;-0.001;
20190925_192809;0.326;9.361;-2.310;0.002;-0.001;-0.001;
20190925_192809;0.316;9.402;-2.291;0.000;0.000;-0.001;
20190925_192809;0.347;9.294;-2.291;-0.003;-0.001;0.000;
20190925_192809;0.326;9.373;-2.310;0.001;0.000;-0.001;
20190925_192810;0.359;9.285;-2.296;-0.003;0.000;-0.001;
20190925_192810;0.278;9.294;-2.308;0.002;0.000;0.000;
20190925_192810;0.326;9.261;-2.351;-0.002;0.000;-0.001;
20190925_192810;0.304;9.323;-2.332;0.004;0.000;0.000;
20190925_192810;0.330;9.330;-2.301;-0.002;-0.001;-0.001;
20190925_192810;0.292;9.349;-2.310;0.001;0.001;0.000;
20190925_192810;0.309;9.345;-2.298;-0.001;0.001;0.000;
20190925_192810;0.309;9.325;-2.303;-0.004;-0.001;-0.001;
20190925_192810;0.335;9.342;-2.310;-0.001;-0.001;-0.001;
20190925_192810;0.261;9.201;-2.272;-0.003;0.001;0.000;
20190925_192811;0.328;9.275;-2.272;0.001;0.000;0.000;
20190925_192811;0.304;9.292;-2.320;0.002;0.000;-0.001;
20190925_192811;0.345;9.335;-2.337;0.004;-0.001;-0.001;
20190925_192811;0.326;9.373;-2.361;0.003;0.000;0.000;
20190925_192811;0.333;9.349;-2.351;-0.002;-0.001;-0.001;
20190925_192811;0.326;9.345;-2.325;-0.001;0.000;0.000;
20190925_192811;0.364;9.321;-2.318;-0.004;0.000;0.000;
20190925_192811;0.297;9.239;-2.284;-0.003;0.000;-0.001;
20190925_192811;0.333;9.297;-2.313;0.001;0.000;-0.002;
20190925_192812;0.268;9.268;-2.243;0.000;0.000;0.000;
20190925_192812;0.302;9.325;-2.289;0.000;-0.001;-0.001;
20190925_192812;0.333;9.311;-2.243;-0.002;-0.001;0.000;
20190925_192812;0.326;9.323;-2.330;-0.001;-0.001;-0.001;
20190925_192812;0.326;9.361;-2.318;0.000;-0.001;0.000;
20190925_192812;0.323;9.321;-2.351;-0.001;0.000;0.000;
20190925_192812;0.318;9.371;-2.332;0.000;0.000;0.002;
20190925_192812;0.321;9.294;-2.344;-0.004;0.000;-0.001;
20190925_192812;0.297;9.301;-2.339;0.002;-0.001;-0.001;
20190925_192812;0.354;9.268;-2.286;-0.002;0.000;-0.001;
20190925_192813;0.309;9.299;-2.267;0.004;0.000;-0.002;
20190925_192813;0.385;9.294;-2.246;-0.001;-0.001;-0.002;
20190925_192813;0.330;9.328;-2.265;-0.002;0.000;0.000;
20190925_192813;0.306;9.376;-2.296;-0.002;0.001;-0.001;
20190925_192813;0.371;9.428;-2.346;0.005;-0.002;-0.001;
20190925_192813;0.311;9.275;-2.303;-0.005;0.000;-0.001;
20190925_192813;0.362;9.416;-2.334;-0.004;-0.001;0.000;
20190925_192813;0.323;9.254;-2.306;-0.011;0.002;0.002;
20190925_192813;0.373;9.369;-2.315;0.000;0.000;0.000;
20190925_192814;0.318;9.254;-2.303;-0.007;0.001;0.002;
20190925_192814;0.371;9.292;-2.294;0.000;0.001;0.000;
20190925_192814;0.309;9.258;-2.105;-0.003;0.000;0.000;
20190925_192814;0.292;9.395;-2.339;0.001;0.000;0.000;
20190925_192814;0.328;9.313;-2.260;0.005;-0.002;0.000;
20190925_192814;0.359;9.419;-2.423;0.023;-0.003;-0.002;
20190925_192814;0.328;9.390;-2.358;-0.005;0.001;0.002;
20190925_192814;0.302;9.304;-2.284;-0.002;0.001;0.000;
20190925_192814;0.350;9.304;-2.349;-0.002;0.000;0.000;
20190925_192815;0.297;9.280;-2.313;0.001;0.000;-0.001;
20190925_192815;0.371;9.321;-2.315;0.000;0.000;-0.001;
20190925_192815;0.311;9.261;-2.289;0.001;0.001;0.000;
20190925_192815;0.271;9.304;-2.267;0.002;0.001;-0.001;
20190925_192815;0.333;9.380;-2.224;-0.004;0.000;0.000;
20190925_192815;0.328;9.371;-2.325;0.001;0.000;-0.001;
20190925_192815;0.359;9.390;-2.310;0.002;-0.001;-0.001;
20190925_192815;0.292;9.304;-2.306;-0.003;0.000;-0.001;
20190925_192815;0.354;9.275;-2.306;0.001;-0.001;0.000;
20190925_192815;0.335;9.287;-2.322;-0.004;0.000;0.000;
20190925_192816;0.318;9.242;-2.325;-0.001;0.000;0.002;
20190925_192816;0.326;9.311;-2.310;-0.001;0.000;-0.001;
20190925_192816;0.294;9.359;-2.270;-0.005;0.000;0.000;
20190925_192816;0.340;9.357;-2.274;0.003;-0.001;-0.001;
20190925_192816;0.285;9.402;-2.298;0.006;-0.002;-0.001;
20190925_192816;0.342;9.364;-2.298;0.012;-0.001;-0.002;
20190925_192816;0.278;9.333;-2.272;-0.001;0.001;-0.001;
20190925_192816;0.354;9.313;-2.313;-0.001;0.000;0.000;
20190925_192816;0.318;9.242;-2.270;-0.001;-0.001;0.002;
20190925_192817;0.335;9.347;-2.315;0.004;0.001;-0.002;
20190925_192817;0.321;9.301;-2.284;0.003;-0.001;-0.002;
20190925_192817;0.335;9.347;-2.344;0.004;0.000;-0.001;
20190925_192817;0.297;9.395;-2.301;0.001;-0.001;-0.001;
20190925_192817;0.283;9.340;-2.356;-0.003;0.000;0.000;
20190925_192817;0.306;9.359;-2.334;0.000;0.000;0.000;
20190925_192817;0.306;9.340;-2.342;0.003;0.000;-0.001;
20190925_192817;0.323;9.232;-2.203;0.003;0.001;-0.001;
20190925_192817;0.290;9.282;-2.231;-0.002;-0.001;-0.001;
20190925_192817;0.290;9.222;-2.258;-0.006;0.001;0.002;
20190925_192818;0.364;9.337;-2.325;0.002;-0.001;0.000;
20190925_192818;0.294;9.354;-2.327;-0.002;0.000;0.000;
20190925_192818;0.311;9.292;-2.263;0.003;-0.001;-0.001;
20190925_192818;0.383;9.347;-2.330;0.001;0.000;-0.001;
20190925_192818;0.366;9.376;-2.318;0.010;0.000;-0.001;
20190925_192818;0.376;9.352;-2.344;0.002;0.000;0.000;
20190925_192818;0.294;9.301;-2.325;-0.006;0.001;0.000;
20190925_192818;0.371;9.402;-2.332;0.001;0.000;-0.001;
20190925_192818;0.302;9.311;-2.318;-0.001;-0.001;-0.002;
20190925_192819;0.364;9.311;-2.298;0.002;-0.001;0.000;
20190925_192819;0.314;9.297;-2.284;-0.005;0.000;0.000;
20190925_192819;0.290;9.263;-2.286;-0.001;0.001;0.000;
20190925_192819;0.347;9.287;-2.344;-0.001;0.001;0.000;
20190925_192819;0.302;9.325;-2.308;0.003;0.000;-0.001;
20190925_192819;0.369;9.299;-2.306;0.004;0.000;0.000;
20190925_192819;0.278;9.378;-2.291;0.002;0.000;-0.001;
20190925_192819;0.383;9.380;-2.291;0.000;-0.001;0.000;
20190925_192819;0.328;9.359;-2.351;-0.003;0.000;0.000;
20190925_192819;0.328;9.290;-2.289;0.000;-0.001;-0.001;
20190925_192820;0.294;9.294;-2.334;0.001;-0.001;0.000;
20190925_192820;0.290;9.311;-2.303;0.003;0.000;-0.001;
20190925_192820;0.347;9.254;-2.318;-0.003;-0.001;0.000;
20190925_192820;0.299;9.333;-2.308;0.003;-0.001;-0.001;
20190925_192820;0.304;9.328;-2.274;-0.000;-0.001;-0.002;
20190925_192820;0.263;9.328;-2.315;0.003;0.000;0.001;
20190925_192820;0.304;9.352;-2.289;-0.005;-0.001;-0.001;
20190925_192820;0.328;9.328;-2.344;0.001;0.001;0.001;
20190925_192820;0.378;9.311;-2.320;-0.003;-0.001;-0.001;
20190925_192821;0.340;9.294;-2.339;-0.000;-0.001;0.001;
20190925_192821;0.278;9.301;-2.301;-0.000;0.001;0.001;
20190925_192821;0.328;9.328;-2.263;-0.002;0.001;0.001;
20190925_192821;0.304;9.354;-2.351;-0.004;0.001;0.001;
20190925_192821;0.335;9.325;-2.291;0.002;0.000;-0.001;
20190925_192821;0.263;9.316;-2.291;-0.000;0.000;-0.001;
20190925_192821;0.316;9.268;-2.133;0.005;0.003;0.002;
20190925_192821;0.314;9.251;-2.203;0.003;0.001;-0.001;
20190925_192821;0.306;9.290;-2.325;0.007;0.000;0.001;
20190925_192821;0.235;9.292;-2.212;0.001;-0.003;-0.002;
20190925_192822;0.311;9.333;-2.267;-0.003;0.002;0.002;
20190925_192822;0.259;9.318;-2.318;0.003;0.002;0.001;
20190925_192822;0.335;9.325;-2.313;0.002;-0.001;-0.001;
20190925_192822;0.326;9.335;-2.351;0.002;-0.001;-0.002;
20190925_192822;0.326;9.313;-2.277;-0.000;0.000;-0.001;
20190925_192822;0.352;9.294;-2.315;-0.002;0.001;-0.001;
20190925_192822;0.354;9.354;-2.298;0.003;0.000;0.001;
20190925_192822;0.342;9.294;-2.294;-0.002;0.000;0.001;
20190925_192822;0.311;9.330;-2.284;-0.002;0.000;-0.001;
20190925_192823;0.294;9.366;-2.339;-0.002;-0.001;-0.001;
20190925_192823;0.304;9.345;-2.320;-0.000;0.000;-0.001;
20190925_192823;0.302;9.282;-2.286;-0.000;0.000;-0.001;
20190925_192823;0.338;9.294;-2.358;-0.000;-0.001;0.001;
20190925_192823;0.357;9.294;-2.325;-0.002;0.000;0.001;
20190925_192823;0.316;9.261;-2.298;0.002;0.000;-0.001;
20190925_192823;0.321;9.378;-2.306;0.004;-0.001;-0.001;
20190925_192823;0.304;9.306;-2.303;0.001;0.001;0.001;
20190925_192823;0.338;9.357;-2.327;-0.000;0.000;0.001;
20190925_192824;0.311;9.380;-2.253;0.001;-0.002;-0.001;
20190925_192824;0.261;9.258;-2.282;-0.006;0.002;-0.001;
20190925_192824;0.335;9.340;-2.354;0.002;0.000;-0.001;
20190925_192824;0.266;9.220;-2.282;-0.005;0.001;-0.001;
20190925_192824;0.350;9.335;-2.342;-0.002;0.000;0.001;
20190925_192824;0.309;9.357;-2.294;-0.003;0.000;-0.002;
20190925_192824;0.311;9.301;-2.282;-0.002;0.000;-0.002;
20190925_192824;0.359;9.364;-2.303;0.001;-0.001;0.001;
20190925_192824;0.299;9.390;-2.349;-0.000;-0.001;0.001;
20190925_192825;0.338;9.325;-2.337;-0.004;0.000;-0.001;
20190925_192825;0.309;9.287;-2.325;-0.003;0.000;0.001;
20190925_192825;0.347;9.313;-2.294;-0.000;0.000;0.001;
20190925_192825;0.302;9.230;-2.301;-0.002;-0.001;0.001;
20190925_192825;0.297;9.311;-2.337;0.004;0.000;-0.000;
20190925_192825;0.292;9.321;-2.306;-0.002;-0.001;-0.000;
20190925_192825;0.316;9.388;-2.303;0.003;-0.001;0.001;
20190925_192825;0.268;9.340;-2.308;0.002;-0.001;0.001;
20190925_192825;0.318;9.345;-2.313;0.001;-0.001;-0.000;
20190925_192825;0.304;9.328;-2.308;-0.002;0.000;-0.000;
20190925_192826;0.354;9.278;-2.303;-0.002;0.000;-0.000;
20190925_192826;0.350;9.246;-2.315;0.001;0.000;-0.000;
20190925_192826;0.302;9.335;-2.330;0.004;0.000;0.001;
20190925_192826;0.347;9.304;-2.289;0.001;0.000;0.001;
20190925_192826;0.287;9.330;-2.282;-0.001;0.001;0.001;
20190925_192826;0.340;9.297;-2.325;-0.002;0.000;-0.000;
20190925_192826;0.350;9.380;-2.351;0.001;0.000;-0.000;
20190925_192826;0.304;9.323;-2.322;-0.001;0.000;-0.000;
20190925_192826;0.345;9.390;-2.361;0.003;-0.001;-0.000;
20190925_192827;0.299;9.244;-2.296;-0.003;0.001;0.001;
20190925_192827;0.347;9.371;-2.313;0.001;0.001;-0.000;
20190925_192827;0.354;9.321;-2.306;-0.002;-0.001;0.001;
20190925_192827;0.271;9.285;-2.286;-0.003;0.001;-0.000;
20190925_192827;0.342;9.342;-2.339;0.002;-0.001;-0.002;
20190925_192827;0.302;9.227;-2.289;-0.002;0.000;0.001;
20190925_192827;0.326;9.402;-2.332;0.003;0.000;-0.000;
20190925_192827;0.369;9.378;-2.296;0.001;-0.001;0.001;
20190925_192827;0.292;9.318;-2.332;0.002;-0.001;-0.000;
20190925_192827;0.352;9.357;-2.327;-0.000;0.000;-0.000;
20190925_192828;0.311;9.385;-2.318;0.003;0.000;0.001;
20190925_192828;0.338;9.287;-2.282;-0.002;0.000;-0.000;
20190925_192828;0.268;9.254;-2.298;-0.000;0.000;0.001;
20190925_192828;0.328;9.345;-2.327;-0.001;-0.001;-0.000;
20190925_192828;0.321;9.237;-2.272;0.001;0.000;-0.000;
20190925_192828;0.335;9.306;-2.344;0.007;0.001;0.001;
20190925_192828;0.271;9.467;-2.332;0.001;0.000;-0.002;
20190925_192828;0.297;9.347;-2.164;0.012;0.008;0.001;
20190925_192828;0.304;9.352;-2.248;-0.022;0.001;-0.000;
20190925_192829;0.283;9.335;-2.351;0.001;0.000;-0.000;
20190925_192829;0.302;9.275;-2.382;-0.000;0.000;-0.003;
20190925_192829;0.223;9.227;-2.241;-0.001;0.001;-0.000;
20190925_192829;0.283;9.256;-2.303;-0.000;0.000;0.001;
20190925_192829;0.287;9.244;-2.298;0.002;0.000;-0.000;
20190925_192829;0.328;9.311;-2.291;-0.000;0.000;0.001;
20190925_192829;0.414;9.369;-2.308;0.003;-0.001;0.001;
20190925_192829;0.330;9.448;-2.296;0.002;0.000;-0.000;
20190925_192829;0.359;9.388;-2.375;-0.001;-0.001;-0.000;
20190925_192829;0.311;9.380;-2.334;-0.001;-0.001;-0.000;
20190925_192830;0.316;9.280;-2.322;-0.005;0.000;0.001;
20190925_192830;0.299;9.225;-2.313;-0.003;0.000;-0.000;
20190925_192830;0.330;9.273;-2.263;0.003;0.000;-0.000;
20190925_192830;0.290;9.256;-2.291;-0.004;0.001;-0.000;
20190925_192830;0.333;9.352;-2.318;0.001;-0.001;0.001;
20190925_192830;0.316;9.409;-2.322;0.002;0.000;-0.000;
20190925_192830;0.294;9.333;-2.267;-0.003;0.001;0.001;
20190925_192830;0.318;9.328;-2.346;-0.001;-0.001;-0.000;
20190925_192830;0.251;9.328;-2.274;0.003;0.000;-0.000;
20190925_192831;0.328;9.278;-2.229;-0.002;0.001;0.001;
20190925_192831;0.290;9.273;-2.270;-0.000;-0.001;-0.000;
20190925_192831;0.352;9.294;-2.301;0.002;-0.001;0.001;
20190925_192831;0.299;9.318;-2.313;-0.001;0.000;0.001;
20190925_192831;0.342;9.328;-2.310;-0.004;0.000;-0.000;
20190925_192831;0.328;9.366;-2.325;0.001;-0.001;0.001;
20190925_192831;0.323;9.340;-2.325;-0.002;0.000;-0.000;
20190925_192831;0.318;9.325;-2.289;0.004;0.000;-0.000;
20190925_192831;0.299;9.325;-2.260;-0.000;-0.001;-0.000;
20190925_192831;0.338;9.287;-2.298;-0.002;0.000;-0.000;
20190925_192832;0.278;9.278;-2.308;-0.000;-0.001;-0.000;
20190925_192832;0.309;9.297;-2.265;0.001;-0.001;-0.000;
20190925_192832;0.309;9.294;-2.298;0.002;0.000;0.001;
20190925_192832;0.321;9.280;-2.263;-0.000;0.000;0.001;
20190925_192832;0.297;9.325;-2.322;0.002;0.001;0.001;
20190925_192832;0.359;9.316;-2.332;0.002;0.000;-0.000;
20190925_192832;0.335;9.373;-2.303;0.004;0.000;-0.000;
20190925_192832;0.338;9.357;-2.349;-0.001;0.000;-0.000;
20190925_192832;0.285;9.357;-2.344;-0.001;0.000;0.001;
20190925_192832;0.330;9.340;-2.303;-0.001;-0.001;0.002;
20190925_192833;0.323;9.313;-2.294;-0.001;0.000;0.001;
20190925_192833;0.326;9.285;-2.284;-0.003;0.000;0.001;
20190925_192833;0.335;9.297;-2.279;0.001;-0.001;0.001;
20190925_192833;0.328;9.287;-2.251;-0.003;0.000;-0.000;
20190925_192833;0.354;9.342;-2.351;0.005;-0.001;-0.000;
20190925_192833;0.326;9.371;-2.284;0.004;0.000;-0.002;
20190925_192833;0.352;9.340;-2.263;-0.000;0.000;0.001;
20190925_192833;0.314;9.371;-2.277;-0.000;-0.001;-0.000;
20190925_192833;0.347;9.337;-2.308;0.004;-0.002;-0.000;
20190925_192834;0.304;9.287;-2.296;-0.001;0.000;-0.000;
20190925_192834;0.354;9.325;-2.318;-0.002;-0.001;0.001;
20190925_192834;0.318;9.232;-2.231;-0.005;0.000;0.001;
20190925_192834;0.321;9.294;-2.279;0.001;-0.002;-0.000;
20190925_192834;0.273;9.337;-2.296;0.002;0.000;-0.000;
20190925_192834;0.335;9.395;-2.322;0.003;-0.001;0.001;
20190925_192834;0.335;9.376;-2.248;-0.002;-0.001;0.001;
20190925_192834;0.290;9.366;-2.298;-0.003;0.001;0.001;
20190925_192834;0.306;9.321;-2.382;0.001;0.000;-0.000;
20190925_192834;0.285;9.275;-2.267;0.008;0.001;-0.002;
20190925_192835;0.302;9.325;-2.260;0.005;-0.002;-0.000;
20190925_192835;0.266;9.342;-2.303;-0.008;0.000;-0.000;
20190925_192835;0.256;9.383;-2.363;0.008;0.000;-0.000;
20190925_192835;0.402;9.340;-2.263;-0.002;0.000;-0.000;
20190925_192835;0.297;9.323;-2.313;-0.003;0.000;-0.001;
20190925_192835;0.302;9.369;-2.399;0.003;0.000;-0.001;
20190925_192835;0.338;9.318;-2.279;0.002;0.000;0.001;
20190925_192835;0.318;9.337;-2.277;-0.001;0.000;-0.001;
20190925_192835;0.369;9.402;-2.351;-0.001;-0.002;-0.001;
20190925_192836;0.304;9.290;-2.375;0.002;-0.001;-0.001;
20190925_192836;0.328;9.325;-2.298;0.000;0.000;0.001;
20190925_192836;0.306;9.278;-2.373;0.001;0.001;0.001;
20190925_192836;0.292;9.268;-2.289;-0.006;0.000;0.001;
20190925_192836;0.350;9.301;-2.234;0.000;0.000;-0.001;
20190925_192836;0.285;9.335;-2.310;0.001;0.000;-0.002;
20190925_192836;0.373;9.392;-2.325;0.000;0.000;0.001;
20190925_192836;0.309;9.294;-2.265;-0.005;0.001;0.001;
20190925_192836;0.338;9.342;-2.334;-0.001;-0.002;-0.002;
20190925_192837;0.340;9.292;-2.248;-0.002;-0.002;0.001;
20190925_192837;0.287;9.359;-2.318;-0.004;-0.001;0.001;
20190925_192837;0.311;9.299;-2.351;-0.001;0.001;-0.002;
20190925_192837;0.328;9.373;-2.344;-0.001;-0.001;0.001;
20190925_192837;0.297;9.321;-2.342;-0.005;0.000;0.002;
20190925_192837;0.314;9.313;-2.301;0.005;-0.001;0.001;
20190925_192837;0.309;9.246;-2.310;-0.001;0.000;-0.001;
20190925_192837;0.369;9.290;-2.301;-0.008;-0.001;0.001;
20190925_192837;0.311;9.330;-2.339;-0.003;0.000;-0.001;
20190925_192837;0.342;9.318;-2.318;0.005;0.001;0.001;
20190925_192838;0.283;9.318;-2.361;0.012;-0.001;-0.003;
20190925_192838;0.393;9.390;-2.318;-0.004;0.001;-0.001;
20190925_192838;0.330;9.323;-2.274;-0.003;0.000;0.001;
20190925_192838;0.275;9.299;-2.272;-0.009;0.001;-0.001;
20190925_192838;0.373;9.333;-2.239;-0.005;0.002;0.001;
20190925_192838;0.220;9.330;-2.279;-0.008;0.000;0.001;
20190925_192838;0.328;9.361;-2.370;-0.003;-0.001;-0.001;
20190925_192838;0.244;9.309;-2.334;0.011;-0.001;-0.002;
20190925_192838;0.369;9.404;-2.485;0.033;-0.004;-0.003;
20190925_192839;0.280;9.292;-2.203;-0.024;0.003;0.001;
20190925_192839;0.333;9.220;-2.236;0.002;0.001;0.001;
20190925_192839;0.340;9.359;-2.236;0.023;-0.002;-0.003;
