Timestamp;Accel_x;Accel_y;Accel_z;Gyro_x;Gyro_y;Gyro_z;
20190809_161517;-1,743;1,784;7,259;0,141;0,122;-0,073;
20190809_161517;-1,834;1,415;9,586;0,012;0,119;-0,039;
20190809_161518;-1,645;1,482;9,479;-0,007;-0,100;-0,004;
20190809_161518;-1,611;1,336;9,383;-0,004;-0,041;-0,026;
20190809_161518;-1,527;0,910;9,512;0,000;-0,097;-0,019;
20190809_161518;-1,190;1,106;9,316;-0,001;-0,172;0,001;
20190809_161518;-0,405;1,640;8,971;-0,007;-0,187;0,033;
20190809_161518;-1,398;1,882;8,978;0,064;0,048;-0,039;
20190809_161518;-2,538;2,557;8,952;0,034;0,287;-0,026;
20190809_161518;-1,417;3,132;8,468;0,033;-0,090;0,062;
20190809_161518;-1,185;1,894;7,745;0,019;-0,119;0,137;
20190809_161519;-4,324;1,288;9,948;-0,167;0,658;0,039;
20190809_161519;-4,518;1,214;9,182;-0,057;0,101;0,030;
20190809_161519;-2,088;1,741;9,335;0,031;-0,952;0,182;
20190809_161519;-1,015;1,729;11,360;-0,049;-0,539;0,125;
20190809_161519;-0,855;2,952;8,602;0,059;-0,222;0,026;
20190809_161519;0,476;2,550;10,068;-0,061;-0,417;0,077;
20190809_161519;-1,403;3,627;10,149;-0,069;-0,168;0,150;
20190809_161519;0,802;2,976;9,697;-0,035;-0,191;0,217;
20190809_161519;3,203;2,023;9,297;-0,056;-0,099;0,323;
20190809_161519;-0,426;2,890;7,599;0,020;0,095;0,188;
20190809_161520;0,840;1,645;7,750;0,115;0,038;0,219;
20190809_161520;0,220;-0,057;10,764;0,005;0,035;0,192;
20190809_161520;-0,304;1,147;8,109;-0,006;-0,083;0,100;
20190809_161520;1,164;1,982;5,574;0,020;-0,226;0,014;
20190809_161520;0,845;1,810;10,736;0,111;-0,380;0,164;
20190809_161520;2,047;-0,069;7,053;0,041;0,095;0,158;
20190809_161520;0,666;0,967;9,646;0,066;0,008;0,092;
20190809_161520;0,582;1,290;9,155;-0,019;-0,077;0,084;
20190809_161520;0,733;1,171;8,698;-0,064;-0,024;0,038;
20190809_161521;2,016;1,844;8,648;0,032;-0,137;0,081;
20190809_161521;0,977;1,384;9,297;0,032;-0,019;0,065;
20190809_161521;0,809;1,152;10,053;-0,016;0,067;0,084;
20190809_161521;1,551;1,777;9,026;-0,017;0,019;0,104;
20190809_161521;2,205;1,504;9,957;-0,045;0,060;0,089;
20190809_161521;2,282;1,772;9,096;-0,017;0,014;0,058;
20190809_161521;1,293;0,924;11,976;-0,086;0,077;-0,036;
20190809_161521;2,519;0,869;10,288;-0,074;0,009;-0,058;
20190809_161521;1,556;1,403;9,313;-0,050;-0,070;-0,149;
20190809_161522;1,812;2,710;9,637;0,033;-0,096;-0,207;
20190809_161522;0,577;1,492;9,953;-0,015;-0,107;-0,168;
20190809_161522;-0,706;1,999;6,393;-0,132;0,031;-0,007;
20190809_161522;0,706;2,504;8,962;-0,029;0,081;0,006;
20190809_161522;1,875;1,453;9,720;-0,074;0,073;0,105;
20190809_161522;1,365;1,743;9,871;0,055;0,190;0,007;
20190809_161522;1,803;0,601;16,319;-0,197;0,332;0,065;
20190809_161522;1,855;0,567;11,262;0,147;0,124;-0,169;
20190809_161522;0,627;2,071;6,852;0,209;-0,003;-0,296;
20190809_161523;1,700;2,667;8,384;0,060;-0,082;-0,212;
20190809_161523;0,338;1,657;9,127;-0,094;0,011;-0,191;
20190809_161523;0,445;2,847;5,770;0,041;0,065;-0,155;
20190809_161523;-0,249;2,830;2,447;0,071;-0,245;-0,093;
20190809_161523;2,483;1,719;7,274;-0,132;-0,155;-0,050;
20190809_161523;2,535;0,991;15,864;-0,243;0,279;-0,147;
20190809_161523;-0,067;2,322;-2,483;0,501;-0,059;-0,458;
20190809_161523;-1,365;1,750;3,553;0,120;0,245;-0,270;
20190809_161523;-0,690;3,261;2,887;0,390;0,149;-0,326;
20190809_161523;-0,113;0,086;5,799;0,050;-0,052;-0,149;
20190809_161524;0,802;0,771;10,525;-0,106;-0,034;-0,044;
20190809_161524;1,286;0,960;10,910;-0,072;0,087;0,013;
20190809_161524;2,107;1,161;13,173;-0,012;0,060;-0,034;
20190809_161524;1,954;2,148;8,511;-0,012;0,269;-0,009;
20190809_161524;-0,251;2,758;2,648;0,118;0,008;-0,301;
20190809_161524;-0,713;0,948;7,417;0,057;-0,263;-0,216;
20190809_161524;-3,991;1,994;3,297;0,483;0,595;-0,569;
20190809_161524;0,359;1,358;17,636;-0,815;0,141;-0,179;
20190809_161524;1,437;0,919;6,445;-0,304;0,038;0,116;
20190809_161525;-0,280;1,867;3,419;0,116;-0,115;0,110;
20190809_161525;-1,233;2,830;-1,295;0,266;-0,035;-0,034;
20190809_161525;-0,838;1,056;11,004;-0,297;-0,103;0,109;
20190809_161525;0,704;1,223;17,698;-0,250;0,460;0,203;
20190809_161525;0,048;0,091;10,714;-0,096;0,205;0,113;
20190809_161525;0,005;0,393;10,760;-0,014;0,224;0,068;
20190809_161525;0,618;1,255;7,082;0,009;0,093;-0,093;
20190809_161525;-0,702;0,690;10,163;-0,015;-0,111;-0,182;
20190809_161525;1,271;-0,637;15,603;-0,018;-0,105;0,007;
20190809_161525;-1,743;0,929;8,856;-0,081;0,296;0,073;
20190809_161526;0,807;1,750;5,729;0,024;-0,119;0,061;
20190809_161526;-0,055;2,124;13,223;-0,256;0,251;0,070;
20190809_161526;0,180;-0,417;11,076;0,028;-0,031;-0,069;
20190809_161526;-0,627;-3,244;22,285;-0,313;0,202;0,027;
20190809_161526;0,737;1,688;4,561;0,141;-0,005;0,006;
20190809_161526;1,070;1,626;6,869;0,011;0,096;-0,022;
20190809_161526;-0,611;-1,006;9,364;-0,027;0,084;-0,089;
20190809_161526;-1,015;1,061;8,353;-0,067;0,136;-0,052;
20190809_161526;1,348;-0,800;14,772;-0,057;0,015;-0,018;
20190809_161527;0,093;1,279;9,354;0,048;0,100;-0,097;
20190809_161527;0,215;0,749;7,956;0,074;0,002;-0,109;
20190809_161527;0,220;1,618;11,064;-0,043;0,061;-0,146;
20190809_161527;-1,393;0,819;5,770;-0,033;-0,016;-0,160;
20190809_161527;-1,721;1,791;9,275;0,043;-0,092;-0,042;
20190809_161527;0,381;-0,922;13,575;-0,014;-0,229;-0,017;
20190809_161527;-0,417;0,869;10,997;0,028;-0,092;0,010;
20190809_161527;0,924;0,922;12,002;-0,001;-0,009;0,046;
20190809_161527;0,199;1,137;6,404;0,078;0,024;-0,041;
20190809_161527;0,582;1,695;8,526;0,025;0,011;-0,107;
20190809_161528;0,749;0,117;13,446;-0,030;-0,006;-0,169;
20190809_161528;-0,553;1,018;11,799;-0,050;0,011;-0,223;
20190809_161528;-0,860;1,827;4,879;0,036;-0,141;-0,128;
20190809_161528;-0,254;1,053;8,109;0,020;-0,121;0,018;
20190809_161528;-2,433;1,312;10,099;0,053;0,091;0,067;
20190809_161528;-0,754;-0,376;10,331;0,015;-0,050;0,164;
20190809_161528;0,812;-0,036;15,028;0,085;-0,303;0,095;
20190809_161528;0,311;1,089;11,564;-0,005;0,101;0,034;
20190809_161528;-1,003;2,368;7,757;0,060;-0,012;-0,015;
20190809_161529;0,232;1,640;6,060;0,069;-0,055;-0,014;
20190809_161529;-1,358;0,271;11,253;0,022;-0,090;-0,037;
20190809_161529;0,596;0,840;8,928;0,034;-0,118;0,031;
20190809_161529;0,721;2,260;5,459;0,189;-0,121;-0,017;
20190809_161529;-0,977;-0,069;12,747;-0,166;0,138;0,087;
20190809_161529;-0,697;1,075;5,610;-0,043;0,065;0,067;
20190809_161529;0,663;2,411;7,434;0,093;0,059;0,062;
20190809_161529;-1,834;0,721;12,222;0,077;0,094;0,016;
20190809_161529;1,015;0,024;9,577;-0,010;-0,011;0,078;
20190809_161529;0,038;-0,711;15,141;-0,103;0,162;0,068;
20190809_161530;-0,910;2,176;9,373;0,081;-0,019;-0,028;
20190809_161530;0,376;0,448;16,319;-0,054;-0,140;-0,013;
20190809_161530;-0,146;0,510;9,852;-0,015;-0,005;0,075;
20190809_161530;-0,709;-0,790;13,190;0,033;0,084;0,019;
20190809_161530;1,020;1,317;7,465;-0,036;0,142;-0,023;
20190809_161530;0,103;-1,030;11,502;0,068;-0,187;-0,085;
20190809_161530;-0,481;2,219;4,982;0,048;-0,054;0,000;
20190809_161530;-0,184;2,136;10,997;-0,022;-0,046;0,111;
20190809_161530;1,623;-0,498;10,781;0,060;-0,145;0,064;
20190809_161530;0,668;0,551;7,046;0,013;0,160;0,006;
20190809_161531;-0,778;-0,682;13,142;-0,063;0,137;0,005;
20190809_161531;-0,833;1,460;6,658;-0,066;0,501;-0,032;
20190809_161531;0,809;0,685;8,748;0,115;-0,036;-0,040;
20190809_161531;-0,936;2,301;5,413;0,142;0,029;-0,021;
20190809_161531;0,735;0,342;9,613;-0,017;0,033;-0,053;
20190809_161531;0,464;1,111;10,997;0,011;0,015;-0,059;
20190809_161531;0,330;-0,567;13,403;-0,185;0,008;-0,058;
20190809_161531;0,086;0,666;8,013;-0,126;0,177;-0,105;
20190809_161531;0,848;0,558;5,385;0,010;-0,335;-0,104;
20190809_161532;0,539;1,295;11,121;-0,036;-0,132;-0,095;
20190809_161532;0,656;1,204;5,078;0,099;-0,014;-0,072;
20190809_161532;-0,036;1,144;9,230;0,041;-0,086;-0,074;
20190809_161532;-1,039;0,891;7,384;0,057;-0,069;0,016;
20190809_161532;-0,103;0,891;11,724;-0,012;0,171;0,002;
20190809_161532;0,520;-0,139;13,132;-0,050;0,016;-0,007;
20190809_161532;-1,353;0,366;13,228;-0,087;0,195;-0,034;
20190809_161532;-0,352;-1,322;12,562;-0,071;-0,084;-0,060;
20190809_161532;0,436;-0,194;12,871;-0,041;-0,084;-0,027;
20190809_161532;-0,606;0,383;8,545;-0,015;-0,038;-0,019;
20190809_161533;-0,297;1,262;11,729;-0,036;-0,069;-0,043;
20190809_161533;-1,832;0,819;11,021;-0,400;0,376;0,027;
20190809_161533;1,551;-0,139;8,147;-0,004;-0,095;0,036;
20190809_161533;-0,206;2,006;7,269;-0,014;0,081;-0,066;
20190809_161533;-0,699;2,095;10,116;-0,003;0,187;-0,118;
20190809_161533;-0,565;0,180;13,321;0,104;-0,038;0,021;
20190809_161533;-1,075;1,755;10,640;0,008;0,031;0,012;
20190809_161533;-0,462;0,728;8,918;-0,043;0,024;-0,004;
20190809_161533;0,603;-0,860;11,756;-0,048;-0,037;0,003;
20190809_161534;0,587;0,924;14,404;-0,064;-0,054;0,006;
20190809_161534;-0,227;-1,290;14,684;0,002;-0,005;-0,031;
20190809_161534;1,113;-0,551;10,068;-0,046;-0,119;0,013;
20190809_161534;0,795;0,857;8,262;-0,031;-0,043;0,015;
20190809_161534;0,139;1,032;6,637;0,005;-0,073;-0,008;
20190809_161534;0,005;0,694;10,671;0,060;0,000;-0,014;
20190809_161534;-0,072;0,431;11,293;0,053;0,010;-0,001;
20190809_161534;-0,625;2,409;6,218;0,092;-0,031;0,003;
20190809_161534;-0,895;0,828;11,186;-0,033;-0,006;0,019;
20190809_161535;-0,850;0,998;14,238;-0,077;0,012;0,006;
20190809_161535;-0,876;1,027;7,903;0,054;0,006;0,057;
20190809_161535;0,807;-0,551;12,852;-0,020;0,129;0,066;
20190809_161535;1,142;0,218;8,574;0,025;-0,064;-0,020;
20190809_161535;-0,192;2,263;6,108;0,046;0,387;-0,219;
20190809_161535;-0,251;3,419;3,946;0,175;-0,133;-0,096;
20190809_161535;0,254;0,232;-1,753;0,557;-0,394;-0,041;
20190809_161535;-0,165;1,008;6,076;-0,188;-0,160;-0,005;
20190809_161535;0,989;0,637;7,025;-0,210;-0,122;0,034;
20190809_161535;0,852;-0,994;11,988;-0,246;-0,025;-0,005;
20190809_161536;-0,017;1,113;8,248;-0,108;0,087;-0,113;
20190809_161536;-1,044;0,836;7,319;0,191;-0,075;-0,186;
20190809_161536;-1,549;-2,210;23,080;-0,198;-0,079;-0,140;
20190809_161536;-0,271;2,217;11,054;0,094;-0,161;-0,041;
20190809_161536;-4,887;-3,017;26,461;0,385;-0,512;0,272;
20190809_161536;-0,759;1,144;-4,944;4,498;0,561;0,024;
20190809_161536;-3,548;-0,498;29,219;-2,540;1,285;-0,429;
20190809_161536;-0,433;-4,525;14,432;0,083;0,313;0,031;
20190809_161536;1,041;3,742;0,986;0,392;-0,791;-0,108;
20190809_161537;-2,322;0,484;12,601;0,209;0,016;-0,084;
20190809_161537;-2,456;1,580;8,406;0,011;-0,234;-0,056;
20190809_161537;-1,010;-1,063;15,122;-0,109;-0,154;0,099;
20190809_161537;-0,249;-1,535;15,320;-0,531;0,732;-0,104;
20190809_161537;0,651;2,576;-1,233;0,221;0,175;0,025;
20190809_161537;-0,302;0,060;-1,233;0,206;0,060;-0,069;
20190809_161537;-1,046;5,720;3,915;-0,188;0,238;-0,141;
20190809_161537;-2,689;-0,352;15,802;0,216;-0,154;0,080;
20190809_161537;-1,369;-1,870;15,493;0,218;0,187;0,099;
20190809_161537;0,163;0,699;-0,883;-0,059;-0,055;0,126;
20190809_161538;-0,297;1,630;3,440;-0,230;0,116;0,143;
20190809_161538;-0,649;0,749;2,638;0,103;0,095;0,060;
20190809_161538;-0,752;4,920;0,606;-0,032;0,407;0,178;
20190809_161538;0,316;-0,115;10,039;0,412;0,076;-0,020;
20190809_161538;-1,824;-0,625;7,817;0,283;0,239;0,204;
20190809_161538;2,148;2,602;2,787;0,650;-0,255;-0,069;
20190809_161538;-0,242;-0,151;-1,772;-0,942;0,845;0,075;
20190809_161538;-0,366;0,900;5,806;0,482;-0,526;0,125;
20190809_161538;-1,523;2,468;3,989;0,181;0,195;0,016;
20190809_161538;1,793;2,617;3,879;0,164;0,021;0,070;
20190809_161539;0,101;1,159;-3,100;0,309;-0,018;-0,190;
20190809_161539;-0,261;2,248;3,915;0,277;-0,319;-0,112;
20190809_161539;-2,105;3,203;4,918;0,251;-0,003;-0,096;
20190809_161539;-1,858;1,446;6,376;0,451;-0,196;0,137;
20190809_161539;1,149;0,443;13,187;0,383;-0,276;0,159;
20190809_161539;-0,488;1,882;8,863;0,149;0,158;0,116;
20190809_161539;1,537;0,737;6,067;0,231;-0,044;0,109;
20190809_161539;0,148;2,303;4,448;0,168;0,123;0,107;
20190809_161539;-6,088;-9,670;35,192;-0,472;0,571;-0,262;
20190809_161540;1,109;-4,264;16,135;-0,881;0,646;0,317;
20190809_161540;-0,271;-2,540;2,176;0,046;-0,030;-0,175;
20190809_161540;-0,350;-2,030;13,405;-0,420;-0,060;-0,077;
20190809_161540;2,389;-1,611;18,194;-0,136;-0,056;-0,046;
20190809_161540;-0,120;0,218;0,974;-0,887;0,813;0,079;
20190809_161540;-1,372;0,359;4,125;-0,373;0,099;-0,084;
20190809_161540;-0,912;1,611;8,174;0,402;-0,285;-0,114;
20190809_161540;-0,888;-1,645;18,593;-0,212;0,094;-0,034;
20190809_161540;0,172;0,354;10,546;-1,111;0,751;-0,155;
20190809_161540;0,668;-1,087;11,899;0,041;-0,063;-0,049;
20190809_161541;-1,120;-0,824;5,983;0,050;-0,281;0,083;
20190809_161541;-0,007;4,506;-4,300;-0,361;0,623;-0,049;
20190809_161541;1,731;-5,382;1,822;0,609;0,080;0,546;
20190809_161541;-2,045;2,040;1,597;-0,608;2,619;0,211;
20190809_161541;-2,727;3,740;14,384;-0,832;0,063;-0,332;
20190809_161541;-1,346;-5,284;19,788;0,016;0,101;-0,130;
20190809_161541;-0,488;1,951;11,284;-0,386;0,556;-0,190;
20190809_161541;-0,498;-4,645;20,772;-0,683;0,186;-0,187;
20190809_161541;-1,686;-3,871;20,712;-0,005;-0,328;-0,284;
20190809_161541;-4,920;-5,061;24,766;0,600;-0,345;-0,273;
20190809_161542;-0,532;-2,868;7,954;0,178;-0,189;-0,010;
20190809_161542;-1,513;-1,597;20,861;-0,790;0,391;-0,003;
20190809_161542;0,551;-0,953;6,055;-1,832;0,864;-0,375;
20190809_161542;-0,596;-0,484;5,289;-0,012;0,137;-0,089;
20190809_161542;-1,068;0,951;1,405;0,157;0,005;-0,038;
20190809_161542;0,024;2,883;-2,492;0,311;-0,004;-0,130;
20190809_161542;-0,007;1,156;1,544;0,642;-0,454;-0,529;
20190809_161542;-0,517;3,816;1,915;0,282;-0,232;-0,279;
20190809_161542;0,421;4,527;21,019;0,143;0,340;-0,145;
20190809_161543;-1,444;-6,656;27,459;0,743;-0,038;-0,329;
20190809_161543;6,194;-0,333;29,504;-0,731;-0,703;-0,434;
20190809_161543;-2,770;-3,376;14,281;-0,814;0,650;-0,619;
20190809_161543;0,091;0,644;10,930;-0,966;0,503;-0,394;
20190809_161543;-1,860;0,450;7,247;0,290;-0,527;-0,106;
20190809_161543;-2,157;-3,079;17,341;-0,114;0,083;-0,109;
20190809_161543;-1,008;-0,596;12,598;-0,114;0,580;-0,233;
20190809_161543;-2,150;4,750;0,316;0,768;-0,808;-0,157;
20190809_161543;-1,197;-5,241;14,025;0,243;-0,645;-0,465;
20190809_161544;-2,897;-3,014;6,412;0,255;-0,463;-0,475;
20190809_161544;-3,021;-2,200;13,874;0,071;-0,121;-0,160;
20190809_161544;1,674;1,195;3,065;0,201;-0,115;-0,119;
20190809_161544;-0,431;-0,273;6,701;0,042;0,050;-0,218;
20190809_161544;-1,733;-1,829;7,764;-0,054;-0,150;-0,220;
20190809_161544;-0,534;-0,213;12,835;0,185;-0,219;-0,169;
20190809_161544;-2,023;2,239;7,204;0,096;-0,001;-0,167;
20190809_161544;-2,356;4,515;-0,072;1,246;-0,661;-0,147;
20190809_161544;-2,476;-0,464;3,455;1,167;-2,873;-0,712;
20190809_161544;-4,456;2,444;1,051;-0,588;5,235;-0,199;
20190809_161545;1,259;3,711;-2,449;1,713;0,212;-0,321;
20190809_161545;-0,974;1,144;8,830;-0,331;0,772;-0,522;
20190809_161545;-0,400;-1,211;12,649;0,500;-0,085;-0,380;
20190809_161545;-0,536;1,336;6,910;0,247;-0,044;-0,424;
20190809_161545;-0,546;3,802;7,278;0,233;-0,156;-0,304;
20190809_161545;-2,368;2,337;10,254;0,084;-0,263;-0,265;
20190809_161545;-2,942;2,030;8,985;0,145;-0,220;-0,271;
20190809_161545;-0,651;2,619;8,873;0,116;-0,233;-0,137;
20190809_161545;-2,308;1,585;7,872;0,065;-0,102;-0,023;
20190809_161545;-0,843;2,377;7,451;-0,029;-0,024;0,041;
20190809_161546;-1,681;2,303;10,551;-0,138;-0,084;0,025;
20190809_161546;-2,351;2,114;8,382;-0,082;0,000;0,112;
20190809_161546;-1,092;1,788;18,122;-0,168;0,014;0,156;
20190809_161546;0,819;3,546;2,605;0,886;0,658;0,222;
20190809_161546;-0,417;-1,812;-13,824;-1,965;-8,890;0,487;
20190809_161546;-5,744;3,029;15,304;0,022;1,634;-0,528;
20190809_161546;1,985;1,312;11,696;-0,223;-0,132;0,080;
20190809_161546;-0,182;1,997;12,359;-0,519;-0,262;-0,191;
20190809_161546;1,063;5,157;0,520;0,104;0,627;-0,105;
20190809_161547;0,996;5,219;13,494;-0,274;0,051;-0,299;
20190809_161547;2,037;1,362;-0,761;0,976;-0,671;-0,326;
20190809_161547;-2,950;1,324;13,137;-0,691;2,061;-0,895;
20190809_161547;-4,017;3,189;5,296;0,291;-0,217;-0,568;
20190809_161547;-3,144;-1,812;18,265;-0,902;0,280;-0,329;
20190809_161547;-2,583;-0,096;10,477;-0,424;0,193;-0,125;
20190809_161547;-0,572;2,054;6,850;-0,056;-0,004;-0,089;
20190809_161547;-0,086;3,725;9,517;-0,035;-0,036;0,030;
20190809_161547;-0,385;2,787;9,591;-0,034;-0,001;-0,151;
20190809_161548;-0,096;2,069;10,027;-0,059;-0,173;-0,171;
20190809_161548;-1,037;2,253;7,858;-0,019;-0,245;-0,211;
20190809_161548;-0,912;2,389;8,270;0,010;-0,337;-0,108;
20190809_161548;-3,826;2,749;7,427;-0,084;-0,286;0,075;
20190809_161548;-2,100;3,079;11,538;-0,135;-0,202;0,316;
20190809_161548;0,488;1,942;10,089;-0,059;-0,136;0,460;
20190809_161548;-0,153;3,670;6,539;0,201;-0,066;0,332;
20190809_161548;-0,886;2,310;10,520;0,035;-0,082;0,337;
20190809_161548;-0,955;1,923;9,321;-0,127;-0,113;0,305;
20190809_161548;-1,891;3,733;9,725;0,098;-0,093;0,434;
20190809_161549;0,642;1,329;2,205;0,071;-0,019;0,489;
20190809_161549;-4,549;-3,725;47,843;0,234;-0,081;0,533;
20190809_161549;-0,661;-4,393;-1,650;8,332;-0,485;2,258;
20190809_161549;-2,004;4,973;-1,563;-4,405;2,154;1,437;
20190809_161549;-5,013;0,110;5,231;-0,081;0,891;-0,024;
20190809_161549;2,552;0,297;18,895;-0,390;0,035;1,021;
20190809_161549;-0,462;0,814;18,012;-0,278;0,204;0,522;
20190809_161549;-1,688;3,433;14,722;0,257;0,224;0,896;
20190809_161549;-2,569;4,590;5,938;0,535;0,522;0,609;
20190809_161550;-1,185;0,122;21,782;-0,912;0,678;0,694;
20190809_161550;-2,703;2,976;7,836;-0,362;0,414;0,410;
20190809_161550;-0,376;1,334;24,313;-1,064;0,791;0,589;
20190809_161550;-1,645;1,824;17,629;-0,244;0,293;0,471;
20190809_161550;-2,306;0,718;17,164;0,199;-0,020;0,660;
20190809_161550;-0,369;0,915;5,617;-1,207;1,052;0,688;
20190809_161550;-0,685;3,625;14,399;0,158;0,310;0,369;
20190809_161550;0,405;4,762;27,928;-1,040;1,007;0,522;
20190809_161550;-1,008;0,852;21,368;0,045;0,635;0,672;
20190809_161550;-0,687;1,578;4,223;-0,244;0,658;0,357;
20190809_161551;0,381;5,107;15,888;0,137;0,366;0,210;
20190809_161551;1,511;4,693;4,070;0,059;0,286;0,044;
20190809_161551;1,391;1,408;-2,186;0,210;0,080;0,124;
20190809_161551;-2,351;0,915;-3,062;0,132;1,252;-0,009;
20190809_161551;2,064;0,778;7,793;-0,116;-0,009;-0,046;
20190809_161551;-4,393;5,543;32,078;-1,205;0,254;-0,008;
20190809_161551;-2,531;5,064;31,728;0,876;-1,614;-0,052;
20190809_161551;-2,133;7,966;34,433;-0,163;-0,097;0,456;
20190809_161551;2,433;2,562;23,947;-0,125;0,877;0,441;
20190809_161551;-2,509;5,157;14,243;-0,326;0,846;-0,120;
20190809_161552;-0,819;4,274;4,355;-0,016;0,145;-0,348;
20190809_161552;7,094;-0,680;1,690;0,782;-0,166;-0,395;
20190809_161552;0,919;1,951;-0,429;-0,322;0,912;-0,461;
20190809_161552;-3,742;4,549;12,086;1,514;0,527;-3,249;
20190809_161552;-14,916;4,027;29,928;-2,174;1,005;-1,436;
20190809_161552;1,662;4,810;-2,081;0,151;-0,613;-0,823;
20190809_161552;0,170;1,118;9,644;-0,375;0,773;0,155;
20190809_161552;4,659;1,343;3,891;0,826;-0,645;0,743;
20190809_161552;0,503;8,052;11,808;0,704;-0,703;0,400;
20190809_161553;-4,468;2,423;19,223;-0,647;0,113;-0,221;
20190809_161553;-1,724;3,103;4,118;0,270;-0,130;0,125;
20190809_161553;-1,815;1,061;15,060;-0,153;0,278;0,011;
20190809_161553;1,238;2,255;-3,414;0,304;-0,193;0,159;
20190809_161553;-0,362;1,990;12,072;0,151;-0,412;-0,066;
20190809_161553;-0,285;0,644;11,772;-1,479;1,029;-0,727;
20190809_161553;-4,597;-1,463;21,732;-1,956;1,928;-0,558;
20190809_161553;-2,306;5,229;0,977;2,057;-1,305;-0,497;
20190809_161553;2,006;1,642;-0,225;0,607;-0,990;0,782;
20190809_161553;-0,223;5,423;2,717;0,524;0,892;0,403;
20190809_161554;0,479;4,324;9,625;0,618;-0,015;0,470;
20190809_161554;0,110;2,282;2,543;0,322;-0,072;-0,148;
20190809_161554;-1,599;2,021;11,923;-0,092;-0,121;-0,182;
20190809_161554;-0,517;2,389;-0,917;0,313;-0,058;-0,160;
20190809_161554;-3,613;2,155;9,014;-0,014;0,264;-0,025;
20190809_161554;0,620;2,215;-2,586;0,879;0,116;0,139;
20190809_161554;-2,737;2,021;10,781;0,383;0,667;0,048;
20190809_161554;-5,619;2,849;26,829;0,014;1,346;-0,325;
20190809_161554;0,340;1,125;18,730;-0,242;0,136;-0,289;
20190809_161555;0,165;0,472;14,712;-0,263;-0,457;-0,442;
20190809_161555;-1,786;1,511;15,160;-0,024;-0,131;-0,215;
20190809_161555;-0,977;2,933;6,893;-0,313;-0,140;-0,177;
20190809_161555;-1,190;0,570;9,191;0,168;-0,245;-0,104;
20190809_161555;-2,011;2,456;8,157;0,230;-0,149;0,011;
20190809_161555;-0,900;2,442;8,569;-0,027;0,128;0,097;
20190809_161555;0,012;2,145;9,313;-0,228;-0,168;0,106;
20190809_161555;-0,776;-0,362;31,340;0,315;0,515;0,066;
20190809_161555;-0,788;0,084;11,131;-0,151;0,224;-0,293;
20190809_161555;-0,546;3,354;5,650;0,256;-0,259;-0,115;
20190809_161556;-0,534;1,192;6,321;-0,039;-0,105;-0,044;
20190809_161556;-0,795;3,553;3,146;0,136;-0,147;0,048;
20190809_161556;-0,182;3,792;1,872;0,080;-0,015;0,110;
20190809_161556;-0,850;2,923;5,013;0,229;0,133;0,058;
20190809_161556;-1,532;2,318;9,385;0,215;0,137;0,035;
20190809_161556;-0,062;1,039;9,052;-0,116;0,082;0,042;
20190809_161556;0,005;1,707;0,400;0,141;0,139;-0,105;
20190809_161556;-1,618;3,134;11,564;0,206;-0,140;-0,109;
20190809_161556;-1,786;4,503;8,964;0,385;-0,215;-0,129;
20190809_161557;-3,484;0,194;20,863;-0,072;-0,102;-0,057;
20190809_161557;-0,378;2,466;0,426;0,165;-0,365;0,235;
20190809_161557;-2,150;3,575;8,818;0,164;0,013;0,197;
20190809_161557;1,329;4,118;7,673;0,029;0,153;0,108;
20190809_161557;-2,471;-0,067;11,425;-0,415;0,186;-0,167;
20190809_161557;1,080;0,721;30,256;-1,123;0,000;-0,136;
20190809_161557;-2,658;-2,011;10,314;-0,210;-0,085;-0,330;
20190809_161557;-2,502;1,532;10,025;0,032;-0,298;-0,287;
20190809_161557;-2,679;-0,503;23,128;-0,092;-0,023;-0,031;
20190809_161557;1,530;1,154;14,269;0,147;0,143;0,225;
20190809_161558;-0,728;-4,089;29,846;-0,634;0,071;0,044;
20190809_161558;-0,733;1,659;0,943;0,259;0,176;0,062;
20190809_161558;3,428;-0,771;28,321;-0,338;0,148;0,205;
20190809_161558;-2,409;-1,470;11,981;-0,023;-0,005;-0,166;
20190809_161558;-1,908;1,638;17,942;-0,243;-0,175;-0,053;
20190809_161558;0,781;-0,958;15,483;-0,771;-0,542;-0,452;
20190809_161558;-0,958;0,685;11,933;-0,394;-0,132;-0,007;
20190809_161558;-2,756;0,395;15,148;0,100;0,074;0,070;
20190809_161558;0,242;3,467;11,655;-0,534;0,099;0,146;
20190809_161559;-0,443;3,321;9,699;0,557;0,001;0,034;
20190809_161559;-4,616;-1,393;22,910;-0,832;-0,251;-0,260;
20190809_161559;-3,129;-0,457;21,395;-0,064;0,031;-0,077;
20190809_161559;-0,656;0,974;5,629;1,041;0,416;0,604;
20190809_161559;0,500;-0,560;-2,504;0,354;-0,183;-0,106;
20190809_161559;-0,120;4,413;-0,924;1,008;-0,146;-0,086;
20190809_161559;-2,519;2,380;11,487;-0,289;-0,109;-0,101;
20190809_161559;0,208;1,920;-2,488;0,658;-0,002;0,005;
20190809_161559;0,690;2,346;-0,115;1,010;-0,087;0,068;
20190809_161559;0,388;5,464;-2,811;1,132;-0,419;0,201;
20190809_161600;-0,864;1,547;10,187;-0,293;-0,048;-0,010;
20190809_161600;-1,343;1,398;-0,460;0,613;-0,079;-0,287;
20190809_161600;-0,740;1,286;0,927;-0,489;0,268;-0,048;
20190809_161600;-3,615;1,769;3,012;-0,663;1,122;-0,369;
20190809_161600;0,141;2,887;-1,697;1,007;-0,634;-0,017;
20190809_161600;0,017;1,899;6,170;1,072;-1,058;0,171;
20190809_161600;-1,858;1,741;9,493;0,008;-0,079;-0,103;
20190809_161600;-3,067;1,635;10,324;0,098;0,018;0,016;
20190809_161600;-0,108;1,279;7,774;0,014;-0,001;0,056;
20190809_161601;-0,757;1,274;11,370;-0,040;0,028;0,048;
20190809_161601;-2,993;1,659;17,226;-0,616;0,360;-0,013;
20190809_161601;-0,283;1,781;7,994;-0,034;0,066;-0,059;
20190809_161601;-0,196;1,216;8,231;0,084;-0,149;0,006;
20190809_161601;-2,514;3,618;8,435;-0,218;0,189;-0,054;
20190809_161601;0,201;2,394;4,458;0,788;-0,631;0,088;
20190809_161601;-2,006;3,443;2,641;0,275;-0,168;-0,042;
20190809_161601;-1,695;1,602;14,164;-0,024;0,226;-0,068;
20190809_161601;0,235;2,078;6,493;-0,056;-0,109;0,031;
20190809_161601;-1,451;2,995;-2,172;0,484;-0,147;-0,027;
20190809_161602;-0,666;2,047;14,284;-0,345;0,223;0,007;
20190809_161602;2,107;1,635;16,901;1,003;-0,032;0,134;
20190809_161602;-0,426;-3,220;18,452;-0,422;0,040;-0,056;
20190809_161602;-1,824;-0,402;23,051;-1,853;0,130;-0,288;
20190809_161602;-1,113;4,159;4,714;0,629;-0,199;-0,043;
20190809_161602;-2,172;0,687;17,961;-0,116;-0,071;-0,006;
20190809_161602;-2,119;3,062;19,041;-0,325;0,038;0,104;
20190809_161602;-0,156;0,972;-1,911;0,733;0,093;-0,063;
20190809_161602;2,418;2,205;29,130;0,833;-0,298;0,042;
20190809_161603;-1,367;-4,992;32,207;0,441;-1,404;-0,913;
20190809_161603;2,241;0,373;9,768;-0,161;1,189;-0,288;
20190809_161603;-0,974;-0,807;-0,364;1,796;-0,233;-0,132;
20190809_161603;0,673;-2,315;25,070;-0,160;-0,402;0,120;
20190809_161603;-2,684;-1,015;17,128;-0,590;0,083;-0,044;
20190809_161603;0,129;2,849;-1,123;0,449;0,075;-0,006;
20190809_161603;-1,808;3,582;-1,662;0,884;0,005;0,044;
20190809_161603;-2,904;3,493;7,051;-0,293;0,172;-0,005;
20190809_161603;-0,735;2,782;4,211;-0,021;0,065;0,092;
20190809_161603;-0,826;2,914;2,313;0,165;0,103;-0,048;
20190809_161604;-1,434;3,891;8,578;-0,876;-0,628;-0,077;
20190809_161604;-0,158;1,906;18,256;-0,039;-0,315;-0,112;
20190809_161604;-1,092;0,043;10,568;0,093;-0,039;-0,074;
20190809_161604;-0,903;1,106;4,393;0,087;-0,103;-0,032;
20190809_161604;-0,766;1,590;-1,444;0,819;0,212;0,123;
20190809_161604;3,874;-0,570;16,338;-0,365;-0,467;0,056;
20190809_161604;-0,338;2,820;2,121;-0,394;0,218;-0,102;
20190809_161604;-4,870;4,688;7,580;0,560;-0,018;-0,133;
20190809_161604;-2,492;0,512;11,339;-0,006;-0,064;-0,053;
20190809_161605;-0,158;1,125;13,532;-0,098;-0,213;0,031;
20190809_161605;-2,686;2,648;13,580;-0,113;-0,028;0,035;
20190809_161605;-0,371;0,864;1,915;0,175;-0,019;0,047;
20190809_161605;-1,767;4,113;3,168;0,228;0,190;0,061;
20190809_161605;-1,199;3,017;0,527;0,089;0,292;-0,114;
20190809_161605;0,160;2,246;4,429;0,276;0,045;-0,062;
20190809_161605;-1,140;2,014;5,902;-0,109;-0,119;-0,051;
20190809_161605;-2,236;2,081;8,866;0,128;0,055;-0,067;
20190809_161605;0,912;0,462;18,038;-0,265;-0,120;0,042;
20190809_161606;-0,141;2,365;-1,101;0,197;0,088;-0,072;
20190809_161606;-0,093;-0,419;23,549;-0,245;0,041;0,087;
20190809_161606;-1,489;1,966;1,384;0,271;0,218;-0,065;
20190809_161606;-1,207;3,462;-1,580;0,360;0,263;-0,013;
20190809_161606;0,230;0,670;15,455;-0,227;-0,179;-0,003;
20190809_161606;-0,745;1,535;0,041;0,171;-0,034;-0,036;
20190809_161606;-0,407;2,765;18,308;0,034;-0,031;-0,008;
20190809_161606;-0,409;-2,224;22,108;-0,348;-0,190;-0,119;
20190809_161606;0,436;1,748;3,598;-0,217;-0,417;0,067;
20190809_161606;-0,144;2,167;3,357;0,165;0,001;0,043;
20190809_161607;-0,187;1,951;3,292;-0,482;-0,097;0,015;
20190809_161607;-1,080;1,724;12,356;-0,251;-0,147;0,028;
20190809_161607;-1,429;1,075;9,917;0,168;0,139;0,068;
20190809_161607;0,057;1,774;16,077;-0,099;0,052;-0,015;
20190809_161607;-1,413;1,736;7,592;-0,380;-0,007;-0,015;
20190809_161607;-0,196;2,057;7,915;0,036;-0,005;-0,063;
20190809_161607;-2,014;-0,029;0,855;0,998;0,311;-0,141;
20190809_161607;-3,333;6,388;2,626;0,884;0,545;-0,113;
20190809_161607;0,452;0,520;16,702;-0,160;-0,442;-0,065;
20190809_161608;0,704;0,031;-2,320;0,267;0,006;-0,101;
20190809_161608;-1,106;-0,323;22,472;-0,407;-0,019;0,031;
20190809_161608;-0,354;-3,029;30,746;-0,193;-0,277;-0,199;
20190809_161608;-0,292;-0,168;18,409;-0,438;0,072;0,050;
20190809_161608;-1,468;1,506;15,435;-0,243;0,054;0,109;
20190809_161608;-1,951;1,784;8,392;-0,048;0,062;0,063;
20190809_161608;0,979;-0,666;15,962;-0,148;0,023;0,063;
20190809_161608;-1,508;2,514;16,307;0,122;0,188;0,001;
20190809_161608;1,156;0,967;8,327;-1,259;-0,136;-0,125;
20190809_161609;-0,079;0,266;11,322;0,032;-0,089;-0,158;
20190809_161609;-3,347;3,462;2,799;0,189;-0,124;-0,123;
20190809_161609;-1,650;0,211;12,953;0,192;-0,075;-0,007;
20190809_161609;-2,473;1,841;11,064;-0,183;-0,067;0,059;
20190809_161609;-0,469;1,738;20,099;-0,052;0,095;0,170;
20190809_161609;3,017;-0,970;24,258;-0,304;0,068;0,268;
20190809_161609;1,003;1,286;5,710;-0,080;0,124;-0,133;
20190809_161609;-0,081;1,630;10,314;-0,106;0,038;-0,074;
20190809_161609;-1,554;1,899;8,212;0,245;0,132;-0,152;
20190809_161609;-1,369;2,330;3,541;-0,033;-0,148;-0,079;
20190809_161610;-1,154;1,032;2,940;0,069;-0,098;-0,106;
20190809_161610;-0,508;3,790;1,089;0,207;-0,014;-0,042;
20190809_161610;-2,880;1,267;2,272;0,255;-0,051;-0,298;
20190809_161610;-0,333;-0,620;11,519;-0,055;-0,099;0,122;
20190809_161610;-0,079;0,608;21,955;-0,223;-0,059;0,051;
20190809_161610;-0,192;1,958;0,400;0,109;-0,054;-0,016;
20190809_161610;-1,410;4,999;-2,895;0,492;-0,015;-0,123;
20190809_161610;-2,258;3,735;3,357;0,195;-0,025;-0,047;
20190809_161610;-1,650;1,161;11,842;-0,104;-0,125;0,000;
20190809_161611;-1,901;0,345;17,743;0,189;-0,025;-0,027;
20190809_161611;0,417;-0,587;28,635;0,381;0,215;0,016;
20190809_161611;3,294;-2,100;32,224;-1,261;-0,239;0,307;
20190809_161611;-1,369;-2,789;24,644;-0,725;-0,169;-0,145;
20190809_161611;0,273;-0,759;17,308;-1,086;-0,475;-0,137;
20190809_161611;-1,939;4,401;8,557;0,013;-0,081;0,099;
20190809_161611;-1,346;2,105;9,859;-0,048;-0,119;0,122;
20190809_161611;0,002;0,043;-1,061;-0,028;-0,034;0,055;
20190809_161611;1,046;1,587;10,116;-0,119;0,014;0,047;
20190809_161611;-2,406;3,512;-2,014;0,048;0,094;-0,106;
20190809_161612;-1,281;3,378;-1,686;0,280;0,057;0,129;
20190809_161612;-5,001;2,950;22,307;-0,293;0,119;-0,439;
20190809_161612;-0,165;0,594;17,248;0,038;0,028;0,096;
20190809_161612;0,991;0,160;18,143;-1,027;-0,251;-0,020;
20190809_161612;-0,567;1,944;8,401;-0,041;0,000;-0,011;
20190809_161612;-1,683;3,294;-1,216;0,281;0,056;-0,082;
20190809_161612;-2,559;4,492;12,007;0,216;-0,534;0,003;
20190809_161612;-4,937;0,527;15,500;-0,031;0,007;-0,009;
20190809_161612;-1,379;2,861;23,394;0,182;0,302;-0,039;
20190809_161613;1,501;0,266;4,259;-1,768;-1,522;-0,180;
20190809_161613;0,096;1,302;0,309;0,210;-0,347;-0,071;
20190809_161613;-1,937;0,864;12,069;0,035;-0,277;-0,042;
20190809_161613;-0,235;2,849;14,794;-0,293;0,006;-0,096;
20190809_161613;-1,082;1,784;0,620;0,172;0,078;-0,040;
20190809_161613;0,117;0,627;-4,417;-0,752;-0,645;-0,066;
20190809_161613;-1,432;4,348;9,776;0,341;-0,116;-0,027;
20190809_161613;-3,764;3,062;22,668;-0,017;0,099;-0,030;
20190809_161613;-0,395;-0,041;8,811;-0,044;-0,017;-0,042;
20190809_161613;-0,481;2,571;6,096;0,074;-0,007;0,043;
20190809_161614;-3,108;2,263;2,665;0,315;-0,170;-0,008;
20190809_161614;-1,159;2,195;11,293;0,087;-0,262;0,013;
20190809_161614;-3,242;2,260;23,504;0,542;0,187;-0,247;
20190809_161614;3,364;-3,474;40,208;-0,511;-0,069;0,124;
20190809_161614;0,510;-0,484;-2,775;4,488;2,895;0,198;
20190809_161614;1,070;-1,401;5,468;0,270;-0,164;0,022;
20190809_161614;1,032;-1,075;-1,348;-0,500;-1,060;0,003;
20190809_161614;-1,829;9,653;13,929;0,581;-0,073;0,193;
20190809_161614;-3,105;2,155;12,716;0,140;0,560;0,083;
20190809_161614;-0,644;-2,210;37,567;-0,195;-0,421;0,018;
20190809_161615;-1,978;-1,899;38,159;-1,067;-1,124;-0,259;
20190809_161615;-1,243;0,953;-3,910;2,786;1,607;0,504;
20190809_161615;-1,374;-0,467;26,121;-2,187;0,452;-0,254;
20190809_161615;1,379;2,224;11,325;0,500;-0,232;0,256;
20190809_161615;-2,054;0,776;10,862;-0,081;0,054;0,120;
20190809_161615;-1,544;1,932;10,494;-0,248;0,198;0,025;
20190809_161615;1,410;1,547;-0,579;-1,407;-0,641;-0,112;
20190809_161615;-2,828;2,332;9,129;-0,523;0,002;0,140;
20190809_161615;-5,397;3,036;7,228;3,513;2,920;0,322;
20190809_161616;-2,162;8,394;28,122;-1,177;-1,326;-0,095;
20190809_161616;-0,084;-1,652;18,182;-0,746;-0,048;0,000;
20190809_161616;0,601;4,386;8,507;0,243;-0,240;-0,283;
20190809_161616;0,567;2,164;-1,788;0,047;0,190;-0,027;
20190809_161616;-1,542;0,400;1,089;0,828;0,021;-0,123;
20190809_161616;-0,373;-0,359;-2,334;-0,838;-1,600;-0,472;
20190809_161616;-4,436;5,890;-1,276;1,254;-0,407;0,219;
20190809_161616;-3,587;4,259;0,448;0,993;-0,141;0,163;
20190809_161616;-5,061;3,891;1,494;0,866;0,027;-0,155;
20190809_161616;-0,939;3,773;4,858;0,531;-0,065;0,016;
20190809_161617;-2,619;3,357;6,677;0,410;0,028;0,007;
20190809_161617;-0,215;1,791;5,825;0,212;-0,158;0,064;
20190809_161617;-2,856;1,468;13,283;-0,828;0,162;-0,055;
20190809_161617;0,096;-0,290;13,068;-0,103;-0,090;0,088;
20190809_161617;-0,091;1,590;6,433;-0,020;-0,047;0,050;
20190809_161617;-2,452;2,653;5,282;0,099;0,051;0,050;
20190809_161617;-1,999;1,425;14,351;0,404;-0,117;0,073;
20190809_161617;0,168;-0,019;31,165;0,081;-0,117;0,076;
20190809_161617;0,555;0,132;21,105;-2,354;-1,143;-0,043;
20190809_161618;-1,963;2,808;-4,283;-1,335;0,460;-0,156;
20190809_161618;-0,373;1,800;-2,761;0,664;-0,496;0,199;
20190809_161618;-0,915;2,847;3,780;-0,459;-0,917;0,131;
20190809_161618;0,062;0,704;-2,749;0,378;-0,267;0,045;
20190809_161618;-3,903;3,996;7,309;0,199;-0,012;0,169;
20190809_161618;-2,653;0,922;2,662;0,181;0,071;0,231;
20190809_161618;-0,785;2,713;16,108;-0,027;0,192;0,260;
20190809_161618;2,229;-0,527;13,348;-0,723;0,317;0,622;
20190809_161618;0,117;0,881;5,162;-0,350;0,087;0,077;
20190809_161618;0,376;1,935;1,985;0,272;0,097;-0,116;
20190809_161619;3,694;-4,652;-1,489;4,879;3,819;-0,396;
20190809_161619;14,947;13,700;20,406;-3,298;-7,084;-0,155;
20190809_161619;-8,861;2,263;12,835;0,631;-0,614;-0,851;
20190809_161619;-1,717;-0,871;10,886;-1,309;0,740;-0,199;
20190809_161619;-0,208;2,284;14,530;0,093;0,177;-0,016;
20190809_161619;1,494;1,554;2,945;-0,248;-0,430;0,248;
20190809_161619;1,997;-2,804;-3,426;-0,462;1,294;0,291;
20190809_161619;-7,616;6,316;28,472;-0,203;0,025;-0,212;
20190809_161619;-1,027;3,551;6,895;2,067;-1,682;0,089;
20190809_161620;-1,331;0,678;-0,436;-1,615;-3,051;-0,116;
20190809_161620;-1,305;-0,242;9,644;1,051;1,028;-0,003;
20190809_161620;1,571;1,243;4,008;0,036;0,130;0,420;
20190809_161620;-0,242;-1,211;6,436;-0,174;-0,580;0,354;
20190809_161620;-0,297;2,294;5,329;-0,234;-0,044;0,243;
20190809_161620;-1,425;1,956;12,344;0,309;0,700;0,045;
20190809_161620;1,994;0,807;17,394;-0,666;-0,509;0,237;
20190809_161620;-3,974;1,305;8,502;0,575;1,112;-0,304;
20190809_161620;3,383;2,466;15,277;0,919;0,971;-0,586;
20190809_161621;-0,067;-0,024;-2,234;0,618;0,117;0,294;
20190809_161621;-0,948;0,998;-0,081;0,819;1,047;-0,122;
20190809_161621;-1,044;1,896;8,894;0,509;0,567;-0,093;
20190809_161621;3,354;1,118;17,739;-0,554;-1,064;0,304;
20190809_161621;-1,365;-0,505;8,133;-1,346;0,025;-0,068;
20190809_161621;-1,255;1,791;6,907;-0,082;-0,311;0,180;
20190809_161621;-1,810;2,840;9,158;0,373;0,234;-0,096;
20190809_161621;-2,983;2,315;2,950;0,141;0,101;-0,015;
20190809_161621;-1,025;1,408;-1,058;0,558;0,032;-0,097;
20190809_161621;-4,865;2,169;3,168;0,484;0,248;-0,064;
20190809_161622;-1,472;2,655;3,539;-0,063;0,295;-0,148;
20190809_161622;-1,106;1,041;1,087;0,228;-0,024;-0,084;
20190809_161622;0,397;0,821;10,922;-0,106;-0,063;-0,100;
20190809_161622;-2,586;2,727;6,823;-0,028;0,071;-0,097;
20190809_161622;-1,599;1,504;2,018;0,512;0,028;-0,008;
20190809_161622;-1,798;1,099;0,591;0,164;0,106;-0,074;
20190809_161622;-3,148;2,246;7,578;-0,077;0,261;-0,121;
20190809_161622;-0,979;2,550;9,459;-0,212;-0,106;0,042;
20190809_161622;-1,245;0,759;0,622;0,360;0,243;-0,050;
20190809_161622;-1,018;1,559;3,725;0,082;0,172;-0,198;
20190809_161623;-1,001;1,149;1,271;0,135;-0,202;-0,154;
20190809_161623;-5,409;0,699;4,496;0,059;0,307;-0,062;
20190809_161623;-6,175;2,842;-0,029;1,632;0,875;0,679;
20190809_161623;-0,007;-1,422;19,690;0,471;-0,284;0,094;
20190809_161623;-2,957;1,982;2,370;0,294;0,602;0,001;
20190809_161623;1,822;1,508;8,557;-0,128;-0,156;0,194;
20190809_161623;-0,280;1,243;7,499;-0,164;0,041;0,080;
20190809_161623;-0,419;0,168;-1,305;0,428;0,400;0,336;
20190809_161623;-0,591;1,008;0,864;-0,207;1,338;0,127;
20190809_161624;4,417;3,338;-7,049;3,371;-0,387;0,578;
20190809_161624;-0,912;1,288;-3,419;3,070;-0,326;0,252;
20190809_161624;-2,825;0,496;3,314;-2,096;0,260;-0,097;
20190809_161624;0,587;1,944;31,354;-0,177;0,044;0,227;
20190809_161624;-0,242;0,268;5,782;-0,877;0,143;0,068;
20190809_161624;-1,463;1,765;4,858;1,219;0,146;0,217;
20190809_161624;-1,041;1,123;18,749;0,314;0,094;0,028;
20190809_161624;-0,199;-0,982;8,741;-1,605;0,273;-0,118;
20190809_161624;-2,138;0,910;13,929;-0,086;-0,036;-0,092;
20190809_161625;-2,385;1,640;-1,001;0,185;0,123;0,070;
20190809_161625;1,010;0,294;12,093;-0,148;-0,027;-0,006;
20190809_161625;-1,422;0,864;11,717;0,307;0,128;-0,033;
20190809_161625;0,213;-1,238;25,481;-0,478;0,019;-0,085;
20190809_161625;-2,938;1,276;-1,120;0,890;0,122;-0,082;
20190809_161625;-3,213;4,676;0,603;-0,614;0,074;-0,095;
20190809_161625;-2,263;1,389;13,223;-0,239;-0,108;-0,144;
20190809_161625;2,593;-0,728;26,499;0,606;-1,131;-0,242;
20190809_161625;-4,147;-1,350;30,646;-0,550;1,918;-0,286;
20190809_161625;1,085;-0,965;12,605;-2,983;1,139;0,136;
20190809_161626;-0,931;0,464;0,283;2,161;1,038;0,325;
20190809_161626;-5,976;5,107;0,321;0,903;0,258;0,124;
20190809_161626;-1,075;0,860;3,919;-0,677;0,178;-0,120;
20190809_161626;-1,475;0,594;2,243;0,455;-0,171;0,042;
20190809_161626;-2,265;5,198;7,501;-0,086;0,064;0,089;
20190809_161626;-1,975;-1,671;14,557;-0,198;0,039;0,056;
20190809_161626;-2,296;3,467;-3,996;1,355;0,902;0,110;
20190809_161626;6,953;0,383;19,245;-4,413;-5,671;0,964;
20190809_161626;0,654;3,184;4,978;0,895;-0,156;0,100;
20190809_161627;-1,470;2,552;20,650;0,120;0,165;0,201;
20190809_161627;-0,333;-0,883;13,898;-0,126;-0,037;0,009;
20190809_161627;0,575;1,329;14,279;0,106;-0,049;0,070;
20190809_161627;-2,983;2,246;12,249;-0,160;0,146;0,066;
20190809_161627;-0,438;2,459;0,922;-0,859;0,108;-0,297;
20190809_161627;-3,024;1,623;7,843;0,264;0,116;-0,102;
20190809_161627;-4,439;1,293;9,318;0,370;0,160;-0,039;
20190809_161627;-0,541;-1,944;21,414;-1,490;0,185;-0,250;
20190809_161627;1,264;-1,111;18,687;-0,283;-0,875;0,134;
20190809_161627;0,120;0,314;-1,472;-0,028;0,217;0,024;
20190809_161628;-1,949;6,553;-0,529;1,152;0,833;-0,358;
20190809_161628;-1,463;3,472;15,239;0,249;0,677;-0,547;
20190809_161628;-5,409;3,953;17,346;0,110;0,070;0,062;
20190809_161628;-2,040;3,768;8,607;-0,098;-0,064;0,296;
20190809_161628;-2,047;3,555;15,194;0,232;-0,230;0,073;
20190809_161628;0,438;-2,428;20,839;-2,194;-1,460;-0,872;
20190809_161628;4,681;0,735;14,123;0,214;-0,168;0,071;
20190809_161628;-2,425;2,816;11,789;0,106;0,036;-0,052;
20190809_161628;-0,548;1,676;-2,004;-1,060;0,384;-0,218;
20190809_161629;2,480;-2,495;13,800;0,242;0,489;0,470;
20190809_161629;-0,960;0,034;0,764;0,068;-0,153;-0,040;
20190809_161629;-2,090;-4,695;31,778;-0,805;0,430;0,132;
20190809_161629;0,352;1,049;-3,500;1,972;-0,715;1,029;
20190809_161629;1,496;0,503;-2,995;-3,735;3,803;-1,707;
20190809_161629;-3,711;0,737;5,923;-0,073;0,387;-0,512;
20190809_161629;5,440;7,889;16,123;2,755;-0,876;0,400;
20190809_161629;-5,804;-1,070;34,730;0,536;0,757;-0,162;
20190809_161629;1,369;-0,634;7,468;-0,253;-1,284;0,272;
20190809_161630;0,081;1,276;1,310;0,312;-0,096;0,417;
20190809_161630;0,663;-0,845;30,878;-0,540;-0,498;-0,155;
20190809_161630;-3,048;1,384;-0,431;0,982;1,143;0,189;
20190809_161630;0,467;-0,785;18,986;-0,509;0,337;-0,259;
20190809_161630;-3,749;3,515;6,989;0,269;-0,489;-0,189;
20190809_161630;-4,441;1,958;6,637;-0,113;-0,743;-0,115;
20190809_161630;3,278;0,419;15,735;-1,186;-0,855;-0,417;
20190809_161630;-3,788;2,581;-1,599;1,278;1,034;-0,042;
20190809_161630;-1,652;-2,911;18,196;-1,233;1,415;-0,116;
20190809_161630;-1,355;0,563;10,151;0,579;-1,143;0,006;
20190809_161631;-1,626;1,377;10,539;1,497;-0,044;-0,002;
20190809_161631;-4,125;1,439;11,332;-0,328;0,018;-0,031;
20190809_161631;-2,143;-2,552;13,293;-0,427;-0,267;-0,184;
20190809_161631;-2,813;0,702;11,760;0,085;-0,037;0,015;
20190809_161631;-9,225;3,895;32,121;0,804;0,452;0,208;
20190809_161631;-0,917;-0,134;19,027;-1,204;0,275;-0,156;
20190809_161631;0,002;0,407;7,985;-0,712;-1,872;-0,430;
20190809_161631;-4,401;0,905;7,010;-1,856;2,377;0,308;
20190809_161631;-3,479;1,686;0,773;0,259;1,077;0,181;
20190809_161632;-2,751;-2,303;24,955;0,029;0,506;-0,238;
20190809_161632;-0,321;-1,393;11,966;0,101;-0,117;-0,335;
20190809_161632;3,572;-1,429;18,208;0,047;-1,917;-0,152;
20190809_161632;-1,125;-0,690;7,535;-0,389;-0,808;0,001;
20190809_161632;-3,218;-0,893;4,276;-0,990;-0,015;-0,105;
20190809_161632;-0,452;0,160;4,468;0,650;-0,141;0,100;
20190809_161632;-2,617;1,398;10,154;0,649;0,029;0,112;
20190809_161632;-1,839;1,238;7,096;0,711;0,083;0,034;
20190809_161632;-0,484;-3,692;20,212;0,000;-1,038;-0,267;
20190809_161632;-2,677;-2,473;16,226;-0,655;-0,754;-0,112;
20190809_161633;-0,196;-0,831;0,788;0,765;-0,184;-0,214;
20190809_161633;-3,369;2,081;-3,302;-7,261;-0,414;-0,512;
20190809_161633;-3,632;1,932;3,934;1,208;-0,221;-0,543;
20190809_161633;0,081;1,844;13,683;0,042;-1,750;0,225;
20190809_161633;-1,851;0,045;2,787;-0,027;0,084;-0,205;
20190809_161633;-3,285;1,125;1,999;-0,621;0,185;-0,164;
20190809_161633;-3,895;2,210;6,189;0,900;-0,149;0,228;
20190809_161633;-2,128;-1,350;2,825;0,427;0,240;0,191;
20190809_161633;0,903;-1,173;10,726;-0,202;-0,084;0,080;
20190809_161634;-2,665;0,249;5,655;0,161;0,228;0,117;
20190809_161634;-3,060;1,097;-1,398;1,048;0,376;0,324;
20190809_161634;-1,341;-3,428;20,087;0,117;1,159;-0,517;
20190809_161634;-3,170;2,995;27,270;-0,200;-0,054;-0,140;
20190809_161634;-6,311;0,754;-0,790;1,725;0,677;0,479;
20190809_161634;-6,867;1,456;2,744;-1,331;0,616;-0,175;
20190809_161634;-1,686;0,124;-0,579;1,211;0,181;0,045;
20190809_161634;-0,084;0,524;0,043;0,950;0,066;0,098;
20190809_161634;-11,284;-2,375;33,533;-0,599;0,577;-0,287;
20190809_161634;5,504;-9,912;14,102;0,044;1,499;0,448;
20190809_161635;0,417;-0,074;-2,258;-0,178;-1,471;-0,340;
20190809_161635;0,795;-0,275;-4,748;1,366;-0,313;-0,351;
20190809_161635;-3,452;-0,153;9,462;-2,441;0,719;-0,279;
20190809_161635;-8,698;0,294;5,224;1,616;0,139;-0,383;
20190809_161635;-2,528;-3,464;11,310;-0,223;-0,324;-0,233;
20190809_161635;-1,458;-3,433;15,435;0,732;0,427;0,007;
20190809_161635;0,735;0,496;-0,093;-0,922;-0,331;0,116;
20190809_161635;-1,535;-10,484;23,700;-0,518;-0,148;0,499;
20190809_161635;0,108;0,062;6,721;1,039;-0,415;0,063;
20190809_161636;-0,735;-4,918;8,061;0,923;0,106;-0,093;
20190809_161636;-2,614;-0,132;0,563;0,908;0,229;0,131;
20190809_161636;-0,855;-0,397;2,251;0,539;-0,325;0,103;
20190809_161636;-1,324;-3,268;14,569;0,115;0,103;-0,066;
20190809_161636;-1,350;-2,916;14,238;-0,049;-0,106;-0,096;
20190809_161636;-2,818;-3,134;8,088;-1,326;0,377;-0,153;
20190809_161636;-0,019;0,735;9,072;0,515;-0,193;-0,279;
20190809_161636;-2,471;-3,309;6,728;0,063;-0,072;-0,206;
20190809_161636;-4,408;-1,757;22,307;0,245;-0,487;-0,427;
20190809_161636;-1,609;-3,440;19,963;0,671;0,538;0,100;
20190809_161637;-3,072;1,338;11,542;-0,709;0,737;-0,073;
20190809_161637;-4,503;1,760;-0,134;1,317;0,600;0,222;
20190809_161637;2,571;-5,514;9,972;-1,807;-1,048;-0,539;
20190809_161637;-0,702;-8,995;22,659;1,325;0,703;0,306;
20190809_161637;-2,930;-0,630;19,649;-0,126;-0,549;-0,338;
20190809_161637;-1,851;-1,240;7,930;-0,391;0,686;0,026;
20190809_161637;-1,367;-1,805;5,059;0,525;0,003;-0,048;
20190809_161637;-4,654;-2,938;6,924;0,750;-0,343;0,045;
20190809_161637;-0,814;-3,323;5,653;0,270;-0,317;0,157;
20190809_161638;-2,358;-2,928;12,570;-0,339;0,041;0,199;
20190809_161638;-4,020;0,472;0,294;0,760;0,282;0,474;
20190809_161638;-0,611;-4,396;19,015;-1,592;0,555;-0,195;
20190809_161638;0,493;0,979;-0,261;0,719;0,766;0,794;
20190809_161638;-3,017;-6,900;23,882;1,974;0,679;0,501;
20190809_161638;-0,429;-4,506;8,873;-1,519;-0,016;-0,390;
20190809_161638;-2,559;-0,280;7,786;-0,226;0,144;0,142;
20190809_161638;-2,679;-2,109;17,722;-1,144;-0,716;-0,132;
20190809_161638;-0,433;-0,022;0,788;2,289;0,387;-0,346;
20190809_161638;-0,412;-0,189;-6,823;-4,407;-1,577;-0,850;
20190809_161639;-5,562;0,108;12,024;2,061;0,436;1,565;
20190809_161639;-5,167;-8,260;28,896;-1,106;-0,588;0,304;
20190809_161639;-0,560;-3,460;11,590;0,697;-1,265;0,244;
20190809_161639;-0,723;0,790;-1,741;0,732;1,094;-0,047;
20190809_161639;-1,192;-2,035;4,961;-0,484;-1,572;-0,207;
20190809_161639;-0,397;-0,168;0,266;1,344;0,163;0,150;
20190809_161639;2,150;-3,297;24,265;1,089;-2,131;-0,014;
20190809_161639;-1,721;-2,813;7,094;1,554;1,126;0,553;
20190809_161639;1,252;-6,912;17,897;-0,332;-0,634;-0,074;
20190809_161640;-1,204;1,386;6,199;-0,873;-1,701;0,051;
20190809_161640;-6,565;-0,833;15,759;1,286;0,251;-0,438;
20190809_161640;-0,658;0,642;0,850;0,848;0,018;-0,178;
20190809_161640;0,084;-0,666;9,694;1,403;0,260;-0,103;
20190809_161640;-0,184;-0,783;2,500;1,126;0,415;0,241;
20190809_161640;-2,255;1,678;-0,144;-0,060;1,003;0,502;
20190809_161640;-0,362;-2,823;1,623;-3,448;-0,879;0,059;
20190809_161640;-2,116;0,170;0,316;0,127;0,715;0,184;
20190809_161640;-0,103;0,417;2,744;-3,149;-0,022;0,257;
20190809_161640;0,680;-0,433;-4,599;-0,942;-1,867;0,075;
20190809_161641;-6,498;-1,891;6,062;-1,248;0,772;-0,008;
20190809_161641;-0,814;-0,496;2,385;-1,164;0,105;0,097;
20190809_161641;-2,756;-1,504;2,131;1,495;0,878;-0,281;
20190809_161641;0,215;-1,575;10,683;-2,379;0,293;0,187;
20190809_161641;-5,933;-4,386;12,464;2,097;0,908;-0,120;
20190809_161641;4,022;0,927;15,742;-0,495;0,606;-0,402;
20190809_161641;-3,397;-0,967;2,832;-0,036;0,414;0,202;
20190809_161641;-0,438;-1,271;3,388;0,940;0,091;0,288;
20190809_161641;-3,268;-4,305;18,376;0,334;0,205;-0,123;
20190809_161641;-3,017;-2,344;20,241;0,514;-0,310;0,155;
20190809_161642;-3,050;-4,108;7,412;-0,719;0,411;-0,098;
20190809_161642;1,087;-2,545;2,011;0,605;-0,489;0,205;
20190809_161642;0,395;-2,832;14,083;1,223;1,137;-0,330;
20190809_161642;-1,468;0,029;-1,025;0,293;0,548;-0,237;
20190809_161642;-3,553;2,430;1,020;0,817;1,449;0,289;
20190809_161642;2,246;-1,791;-3,680;-2,398;-2,754;-1,178;
20190809_161642;-7,566;-1,997;11,633;0,962;1,366;-0,789;
20190809_161642;0,326;-8,404;38,719;1,075;0,594;-0,181;
20190809_161642;-1,865;-8,176;13,812;0,800;0,114;-0,141;
20190809_161643;1,539;0,366;12,349;-0,469;-0,418;-0,247;
20190809_161643;-2,030;1,085;4,707;-0,550;-0,083;0,392;
20190809_161643;-0,187;-2,172;0,340;-3,276;-1,946;0,055;
20190809_161643;-2,023;-2,567;12,644;0,024;0,899;-0,270;
20190809_161643;-5,535;-4,906;8,159;-0,692;1,791;0,156;
20190809_161643;0,268;-2,128;5,210;-1,093;0,449;-0,178;
20190809_161643;-4,800;-3,225;12,033;0,047;-0,375;0,040;
20190809_161643;-0,998;-0,795;5,217;-0,426;0,294;-0,026;
20190809_161643;-7,396;1,946;0,668;0,307;1,365;-0,138;
20190809_161644;0,390;-0,558;1,889;-1,538;-2,006;-0,663;
20190809_161644;-3,847;-4,501;24,584;1,229;2,441;0,261;
20190809_161644;1,741;0,053;6,996;0,775;-0,373;0,022;
20190809_161644;0,381;-0,314;0,967;-0,040;0,577;0,073;
20190809_161644;-1,202;-5,928;6,732;0,022;0,246;-0,007;
20190809_161644;-1,650;0,484;3,725;0,018;-0,122;-0,026;
20190809_161644;-0,536;-5,624;20,329;-0,161;0,282;0,033;
20190809_161644;3,160;-6,072;19,834;0,525;-0,171;-0,166;
20190809_161644;-2,394;-4,108;9,893;0,927;0,637;-0,400;
20190809_161644;-4,477;-1,748;9,567;1,163;1,525;-0,636;
20190809_161645;0,077;-5,497;20,892;0,651;-0,429;-0,096;
20190809_161645;1,772;-2,112;7,144;-0,111;-1,403;-0,056;
20190809_161645;-2,014;-2,713;6,551;-0,159;0,217;0,501;
20190809_161645;-3,354;-0,618;10,082;-0,490;0,536;0,208;
20190809_161645;-1,073;-2,986;7,977;0,032;0,123;0,108;
20190809_161645;-0,452;-0,316;7,214;-0,317;0,544;0,121;
20190809_161645;-2,713;-0,273;4,927;0,018;0,589;0,021;
20190809_161645;-6,524;2,121;-1,358;-0,441;1,003;-0,113;
20190809_161645;0,690;-3,833;12,974;0,913;0,636;-0,001;
20190809_161646;-0,271;-1,549;-1,961;-0,893;-0,309;-0,191;
20190809_161646;-1,724;0,615;2,500;-0,217;0,401;-0,124;
20190809_161646;-1,607;-2,480;10,206;-1,259;0,058;-0,158;
20190809_161646;-2,514;0,069;3,345;-0,027;0,530;-0,001;
20190809_161646;-0,493;-0,931;1,240;-0,192;-0,152;-0,131;
20190809_161646;-2,138;0,644;1,700;-0,023;0,185;0,150;
20190809_161646;-3,153;-1,039;8,061;0,058;0,188;0,068;
20190809_161646;-2,535;0,618;-0,192;-0,161;0,375;-0,040;
20190809_161646;0,000;-0,397;7,068;-1,780;-1,908;-0,715;
20190809_161647;-3,309;-2,612;8,638;-0,353;0,144;-0,004;
20190809_161647;-0,206;-0,948;3,938;-1,425;-1,143;-0,068;
20190809_161647;-0,335;-5,140;5,825;-0,394;0,466;-0,044;
20190809_161647;-3,105;-1,855;10,357;0,176;-0,065;0,068;
20190809_161647;-1,990;-1,968;7,044;-0,684;1,040;0,110;
20190809_161647;-4,417;-0,072;3,311;-0,610;0,517;-0,102;
20190809_161647;-3,144;-1,080;6,792;0,304;0,033;-0,262;
20190809_161647;-0,369;-2,449;1,887;0,969;1,086;0,851;
20190809_161647;0,007;1,379;-4,808;0,686;-0,443;-0,346;
20190809_161647;-2,102;-0,982;-1,513;-0,609;-0,258;-0,167;
20190809_161648;-3,405;-1,401;5,097;-0,773;0,210;-0,091;
20190809_161648;0,678;-2,543;2,691;0,118;0,677;0,046;
20190809_161648;0,096;-0,591;5,042;0,234;0,367;0,138;
20190809_161648;-0,445;-2,004;4,887;-0,230;0,008;-0,046;
20190809_161648;-2,274;0,807;0,876;0,108;0,201;-0,189;
20190809_161648;-0,520;-0,350;10,606;0,704;-0,430;0,098;
20190809_161648;0,982;-0,900;2,658;-0,044;0,176;-0,047;
20190809_161648;0,117;-2,957;11,497;-0,278;0,441;-0,218;
20190809_161648;-4,255;-0,086;3,622;-0,405;0,735;-0,067;
20190809_161649;-4,549;0,005;-1,185;-0,399;0,928;-0,399;
20190809_161649;-3,287;-2,919;8,619;0,402;-0,164;-0,310;
20190809_161649;-0,551;-1,475;6,546;1,560;-1,181;0,126;
20190809_161649;-1,630;-2,581;12,838;-0,260;0,395;0,057;
20190809_161649;-2,016;-3,017;11,768;-0,273;0,653;0,078;
20190809_161649;-1,305;-2,057;7,697;0,172;-0,157;-0,057;
20190809_161649;1,487;-2,593;13,345;0,473;0,001;0,045;
20190809_161649;-0,955;-3,010;7,623;-1,463;-0,254;-0,375;
20190809_161649;2,523;-4,942;15,859;0,320;0,047;-0,167;
20190809_161649;0,019;-0,014;-2,758;-0,959;-0,797;-0,722;
20190809_161650;-8,540;2,021;-2,854;-0,627;0,389;-0,205;
20190809_161650;1,267;-4,872;12,675;-1,370;-1,675;-0,735;
20190809_161650;1,489;-3,247;10,314;-0,393;-0,454;-0,140;
20190809_161650;-1,638;-0,350;3,709;-0,309;-0,119;-0,291;
20190809_161650;-1,132;-1,477;6,467;0,591;-0,267;0,019;
20190809_161650;3,227;-6,594;22,484;0,335;-1,030;-0,042;
20190809_161650;-0,476;-3,079;1,264;0,895;-0,445;0,032;
20190809_161650;-3,105;-1,597;12,809;0,318;-0,619;0,051;
20190809_161650;-0,857;-0,182;5,825;0,028;-0,238;0,087;
20190809_161650;0,929;-1,408;6,510;-0,885;-1,226;-0,042;
20190809_161651;0,323;-2,746;7,975;-0,742;-2,502;-0,123;
20190809_161651;0,931;-5,073;15,687;-1,149;-1,877;0,057;
20190809_161651;-4,731;1,729;0,888;-0,371;0,468;-0,409;
20190809_161651;0,352;-1,434;12,759;-0,053;0,677;0,154;
20190809_161651;-1,990;-1,975;2,449;-0,469;1,042;-0,005;
20190809_161651;-4,851;1,690;4,156;-0,025;1,506;-0,108;
20190809_161651;0,402;-0,565;-0,433;-0,153;1,070;-0,235;
20190809_161651;-3,594;-1,539;1,645;0,307;0,407;0,066;
20190809_161651;-2,588;-0,500;1,563;1,011;0,599;1,004;
20190809_161652;-1,267;0,800;1,939;1,061;1,594;-0,561;
20190809_161652;2,552;-1,956;25,283;0,220;-0,072;-0,158;
20190809_161652;1,937;-0,237;1,231;-0,105;-1,787;-0,076;
20190809_161652;-3,792;-0,096;2,643;-0,817;0,899;-0,039;
20190809_161652;-0,927;-1,334;2,188;-0,510;0,766;0,232;
20190809_161652;-2,361;-0,151;5,820;0,310;0,161;0,083;
20190809_161652;-0,548;-4,053;15,795;0,278;-0,398;-0,097;
20190809_161652;-0,462;-2,303;2,911;-0,111;-1,378;-0,233;
20190809_161652;3,735;-10,661;25,862;-0,978;-2,063;0,160;
20190809_161652;0,196;-0,220;5,535;1,887;2,205;1,967;
20190809_161653;7,542;-4,403;16,470;1,952;-1,466;-1,509;
20190809_161653;-3,716;-3,256;13,247;0,800;1,631;-0,073;
20190809_161653;0,479;-2,083;3,282;-1,302;-0,718;-0,454;
20190809_161653;-2,729;-0,543;3,567;0,079;1,237;-0,057;
20190809_161653;-3,218;-2,976;10,716;-2,228;-0,490;-0,344;
20190809_161653;-0,788;-4,305;15,945;-0,183;-0,779;0,041;
20190809_161653;-0,646;1,166;1,341;-0,275;-0,161;0,071;
20190809_161653;-0,749;-5,114;12,503;-2,057;-0,017;-0,100;
20190809_161653;0,048;-5,993;17,210;0,182;-0,581;-0,018;
20190809_161654;2,315;0,843;-0,122;1,404;2,522;1,370;
20190809_161654;2,184;-3,790;11,061;-5,571;-3,324;-0,773;
20190809_161654;3,357;-5,107;25,651;1,934;2,244;-0,264;
20190809_161654;-4,334;-3,359;13,556;4,971;1,339;0,960;
20190809_161654;3,256;-3,230;9,682;-0,818;0,923;-0,051;
20190809_161654;-1,980;-2,816;3,005;1,321;-1,075;0,621;
20190809_161654;-2,648;-1,032;8,392;-0,196;0,479;0,439;
20190809_161654;-5,037;-4,855;22,130;0,974;0,498;-0,105;
20190809_161654;2,274;-4,338;15,732;-0,298;0,530;-0,307;
20190809_161654;0,096;-5,030;16,496;0,561;-0,164;-0,432;
20190809_161655;-1,607;-4,458;7,104;1,330;-0,481;-0,174;
20190809_161655;1,516;-1,994;2,081;-1,435;-1,107;-0,100;
20190809_161655;-1,460;-0,464;6,574;0,184;-0,116;-0,493;
20190809_161655;0,855;-5,531;16,654;0,982;0,088;0,058;
20190809_161655;-3,780;-1,987;12,637;0,442;-0,784;0,188;
20190809_161655;-0,505;-0,196;3,397;0,928;-0,978;-0,822;
20190809_161655;-0,448;-0,227;-2,468;2,345;1,836;-0,229;
20190809_161655;-0,532;-1,235;2,662;-3,562;0,573;0,311;
20190809_161655;-3,093;-9,469;21,593;0,624;-0,141;-0,449;
20190809_161656;1,762;-1,480;-0,192;-2,848;-0,122;-0,268;
20190809_161656;-4,185;-2,624;7,408;2,139;0,465;-0,465;
20190809_161656;0,630;-2,126;8,490;-0,806;-0,738;-0,319;
20190809_161656;-0,369;-1,748;8,602;-0,131;0,018;-0,065;
20190809_161656;-1,188;-4,482;9,993;0,374;-0,081;0,052;
20190809_161656;0,807;-2,514;7,439;0,517;-0,508;-0,081;
20190809_161656;-2,504;-3,567;12,165;1,544;-0,017;-0,273;
20190809_161656;-3,031;-3,287;8,504;2,036;0,841;-0,171;
20190809_161656;3,299;-3,508;10,690;-0,365;-0,742;-0,185;
20190809_161656;-0,010;0,266;0,857;-1,390;-0,452;-0,132;
20190809_161657;-2,128;-1,362;5,282;-1,434;0,070;0,131;
20190809_161657;-1,724;-6,560;22,532;-1,229;-1,327;-0,251;
20190809_161657;-1,353;-3,067;9,139;0,500;0,816;-0,414;
20190809_161657;-1,714;-1,915;8,854;-1,094;0,664;-0,091;
20190809_161657;-0,718;0,342;0,747;-2,674;-0,015;-0,317;
20190809_161657;-4,087;-1,906;11,523;0,886;0,489;0,227;
20190809_161657;-1,834;-2,631;6,309;-0,237;0,458;-0,049;
20190809_161657;0,745;-5,612;18,172;0,554;-0,523;-0,108;
20190809_161657;1,360;-0,919;1,949;0,050;-1,403;-0,179;
20190809_161658;-1,290;-0,057;5,631;-0,797;-0,214;-0,219;
20190809_161658;-2,401;-0,443;4,094;-0,867;0,685;-0,021;
20190809_161658;-1,726;-0,187;5,662;-0,283;0,320;-0,069;
20190809_161658;-3,436;-1,815;8,633;-1,309;0,691;-0,051;
20190809_161658;-1,535;-0,405;7,554;-2,072;0,865;0,059;
20190809_161658;-1,820;1,425;5,576;-1,735;0,028;-0,024;
20190809_161658;-0,338;-1,683;3,785;-2,201;0,827;0,131;
20190809_161658;-0,402;-0,737;0,754;2,315;0,493;-0,231;
20190809_161658;-1,061;-0,871;3,381;1,920;0,555;-0,106;
20190809_161659;-2,523;-4,413;14,126;1,593;0,169;-0,085;
20190809_161659;1,465;-1,832;7,228;2,603;0,844;0,147;
20190809_161659;0,201;-1,140;1,566;-1,220;0,596;-0,026;
20190809_161659;-1,109;-0,599;4,257;-2,885;0,543;-0,132;
20190809_161659;1,293;-5,033;7,494;-0,848;-0,347;-0,283;
20190809_161659;-6,270;-4,255;13,314;1,784;-1,055;-0,423;
20190809_161659;-0,431;-2,373;5,452;1,213;0,268;-0,084;
20190809_161659;0,512;-1,750;4,283;0,569;0,114;0,232;
20190809_161659;1,448;0,127;1,693;-1,836;-1,521;0,160;
20190809_161659;1,597;-6,354;12,040;-0,330;-0,552;-0,249;
20190809_161700;2,636;-1,865;6,431;-0,326;-0,634;-0,213;
20190809_161700;-0,761;-5,495;12,670;0,697;-0,001;-0,138;
20190809_161700;-0,481;-0,376;1,463;-0,445;0,609;0,002;
20190809_161700;-0,706;-1,927;5,701;0,257;0,600;0,123;
20190809_161700;-0,948;-6,345;12,483;-0,725;0,228;-0,330;
20190809_161700;3,194;-6,673;14,676;-0,188;-0,854;-0,203;
20190809_161700;-0,553;-4,843;9,251;0,234;0,179;0,022;
20190809_161700;1,444;-1,966;7,195;0,214;-0,328;0,057;
20190809_161700;0,905;-2,083;6,488;-0,333;0,092;-0,107;
20190809_161701;0,974;-6,625;14,313;0,198;0,239;-0,099;
20190809_161701;-0,965;-2,598;11,459;0,294;-0,021;-0,053;
20190809_161701;0,136;-3,359;9,103;-0,072;0,028;-0,056;
20190809_161701;-1,030;-2,938;7,915;-0,432;0,288;-0,074;
20190809_161701;0,321;-1,437;9,742;-0,016;0,169;-0,207;
20190809_161701;-1,106;-1,769;4,642;-0,039;0,357;-0,285;
20190809_161701;-0,055;-2,674;9,438;0,358;0,234;-0,416;
20190809_161701;-0,814;-3,706;9,627;-0,025;0,145;-0,393;
20190809_161701;-1,106;-4,223;10,056;0,100;-0,270;-0,263;
20190809_161701;-0,706;-4,535;10,163;0,158;-0,096;-0,193;
20190809_161702;-2,586;-1,013;3,965;1,333;0,914;-0,160;
20190809_161702;-4,214;-1,305;10,171;1,240;0,607;0,032;
20190809_161702;-1,951;-2,789;6,833;0,798;-0,226;0,095;
20190809_161702;-1,185;1,611;9,579;-0,706;0,367;0,148;
20190809_161702;-1,527;-3,529;14,988;-0,753;0,160;-0,068;
20190809_161702;-0,529;-2,519;7,784;-0,843;0,054;-0,019;
20190809_161702;-3,294;-4,087;8,650;0,674;0,171;-0,079;
20190809_161702;0,486;-4,705;12,299;1,147;0,022;-0,015;
20190809_161702;-2,614;-4,029;9,412;0,786;0,072;0,063;
20190809_161703;-2,672;-1,628;8,382;0,293;-0,154;0,079;
20190809_161703;-1,226;-4,257;10,233;-0,083;-0,248;0,122;
20190809_161703;-1,080;-3,670;9,215;-0,345;-0,342;0,235;
20190809_161703;-1,659;-2,186;10,791;0,217;-0,033;0,365;
20190809_161703;-0,479;-4,499;11,392;0,621;0,051;0,318;
20190809_161703;-1,408;-4,731;9,756;0,422;0,040;0,367;
20190809_161703;-0,769;-3,373;10,712;0,115;-0,270;0,438;
20190809_161703;0,055;-3,749;10,484;-0,300;-0,228;0,475;
20190809_161703;-1,393;-4,575;10,235;0,157;-0,338;0,544;
20190809_161703;-0,821;-4,008;11,964;-0,098;-0,005;0,613;
20190809_161704;0,232;-1,405;8,040;-0,492;-0,913;0,563;
20190809_161704;-3,950;-2,631;6,627;-0,330;0,606;0,596;
20190809_161704;-0,218;-1,257;7,491;-0,152;-0,169;0,447;
20190809_161704;-0,340;1,362;-1,970;-5,875;-2,471;-1,153;
20190809_161704;-0,718;-5,622;8,854;-2,720;-0,261;1,476;
20190809_161704;-4,257;-4,903;14,566;-0,471;0,528;0,921;
20190809_161704;-2,710;-5,073;11,839;-0,579;0,182;0,556;
20190809_161704;0,737;-6,919;12,342;0,361;-0,111;0,846;
20190809_161704;2,682;-2,198;9,158;-0,539;-1,007;0,648;
20190809_161705;0,318;-3,685;8,748;-0,246;-0,363;0,652;
20190809_161705;-1,925;-3,989;12,656;0,496;0,302;0,866;
20190809_161705;0,160;-4,480;10,331;0,063;-0,069;0,827;
20190809_161705;0,682;-4,302;10,374;0,012;-0,237;0,833;
20190809_161705;3,103;-4,978;16,226;-0,165;-0,488;0,720;
20190809_161705;-0,637;-4,149;12,740;-0,046;0,090;0,790;
20190809_161705;0,345;-3,994;11,868;-0,101;0,242;0,718;
20190809_161705;-0,280;-1,891;8,552;-0,467;-0,129;0,470;
20190809_161705;-0,479;1,159;2,246;-0,295;0,088;0,436;
20190809_161705;-1,101;-2,614;11,346;-2,068;-0,408;0,318;
20190809_161706;-0,972;-9,340;23,466;0,535;0,555;0,171;
20190809_161706;0,110;-1,970;9,598;-0,325;-0,226;0,495;
20190809_161706;0,740;-3,706;8,370;-1,579;-0,756;0,357;
20190809_161706;-0,144;-1,556;7,772;-0,371;-0,302;0,084;
20190809_161706;-3,242;-2,428;7,695;0,722;0,797;0,273;
20190809_161706;-4,245;-1,343;17,731;0,979;-0,259;-0,504;
20190809_161706;-1,164;0,259;3,924;-1,041;0,589;-0,018;
20190809_161706;-1,618;-3,828;12,797;-0,565;-0,712;-0,517;
20190809_161706;-5,696;-5,203;14,454;0,395;1,108;-0,115;
20190809_161707;-0,852;-4,946;12,366;0,863;-0,093;0,234;
20190809_161707;-1,736;-2,413;5,684;0,054;0,294;0,219;
20190809_161707;1,697;-10,029;33,320;1,011;-0,523;0,695;
20190809_161707;1,614;-4,848;16,659;2,796;0,859;0,283;
20190809_161707;-2,064;-1,422;4,209;-1,083;-1,006;0,367;
20190809_161707;-1,788;0,129;2,016;-0,938;-1,157;-0,243;
20190809_161707;-0,587;-2,830;8,102;0,527;0,391;-0,225;
20190809_161707;-2,514;-0,871;8,942;0,080;0,315;-0,147;
20190809_161707;-2,294;-2,653;7,240;0,084;0,026;-0,093;
20190809_161707;-0,460;-4,757;6,553;-0,263;-0,215;-0,049;
20190809_161708;-1,666;-0,115;4,369;0,148;0,326;0,185;
20190809_161708;-1,477;-1,341;6,823;-0,505;-0,371;0,154;
20190809_161708;0,464;0,725;2,176;-0,519;-0,307;0,109;
20190809_161708;4,741;-14,310;42,449;-1,606;-1,323;0,089;
20190809_161708;-0,778;-1,188;5,339;2,859;0,392;-0,195;
20190809_161708;0,996;-10,343;20,401;-0,544;0,849;-0,417;
20190809_161708;1,609;-2,105;4,353;1,021;0,760;0,180;
20190809_161708;-1,669;-1,769;7,496;0,534;0,235;0,041;
20190809_161708;-0,608;-2,866;12,874;-0,592;-0,791;-0,183;
20190809_161709;-1,250;-1,937;8,679;-0,221;0,025;-0,151;
20190809_161709;-2,643;-3,723;10,362;-0,126;0,123;-0,080;
20190809_161709;-1,731;-4,063;11,126;0,764;0,645;-0,021;
20190809_161709;0,290;0,034;0,376;-0,862;0,033;-0,357;
20190809_161709;-1,252;-3,814;14,030;1,025;-0,032;0,222;
20190809_161709;-3,979;-3,369;2,720;5,577;-0,268;-0,950;
20190809_161709;-1,621;-3,455;11,332;-1,755;0,964;-0,153;
20190809_161709;0,110;-0,019;-2,059;-0,228;-0,115;-0,403;
20190809_161709;-0,405;0,455;-1,381;-3,865;-0,396;-0,320;
20190809_161709;-1,317;-0,038;-2,531;-0,817;-1,874;-0,004;
20190809_161710;-0,551;-2,813;6,840;-2,080;-0,017;-0,115;
20190809_161710;-2,203;-2,942;9,622;0,345;0,172;0,050;
20190809_161710;0,134;-4,108;9,878;0,100;-0,165;-0,017;
20190809_161710;-1,444;-1,875;9,653;0,466;-0,258;-0,187;
20190809_161710;2,191;-0,869;-1,065;-4,043;-1,032;-2,181;
20190809_161710;2,988;-1,346;-0,599;4,062;4,432;3,150;
20190809_161710;-1,863;-0,206;2,516;1,177;2,832;0,554;
20190809_161710;2,102;4,626;-0,666;1,771;-2,586;-2,362;
20190809_161710;-0,294;0,797;2,897;-7,634;0,579;-1,123;
20190809_161711;-0,867;-0,113;7,350;-2,282;0,423;0,128;
20190809_161711;0,546;0,953;6,213;-1,773;-0,744;-0,248;
20190809_161711;-3,361;-5,495;8,076;-0,465;0,472;0,093;
20190809_161711;-2,210;-3,591;16,577;0,135;-0,496;0,061;
20190809_161711;-0,603;-2,670;9,067;-0,139;-0,004;-0,136;
20190809_161711;-2,602;-4,709;7,446;-0,327;0,473;-0,183;
20190809_161711;-0,079;-1,348;4,175;-0,196;0,721;-0,319;
20190809_161711;-1,367;-1,772;0,615;-0,406;1,511;-0,023;
20190809_161711;-2,631;-1,312;2,411;-0,212;1,327;0,311;
20190809_161712;-3,041;-1,717;9,708;0,099;0,736;0,124;
20190809_161712;-1,346;-0,850;2,933;-0,209;1,231;-0,095;
20190809_161712;-1,877;-0,745;2,466;0,078;2,118;0,113;
20190809_161712;0,079;-0,893;13,410;-2,760;-3,249;-1,196;
20190809_161712;1,094;-0,840;8,854;-1,972;-2,032;-0,792;
20190809_161712;0,091;-5,866;15,835;0,781;0,135;-0,409;
20190809_161712;0,548;-3,292;12,735;0,094;-0,892;-0,362;
20190809_161712;0,591;-4,044;17,535;0,120;-0,517;-0,197;
20190809_161712;0,618;-0,864;5,933;-0,884;-1,975;-0,718;
20190809_161712;-4,451;-3,333;9,043;-0,031;1,335;-0,399;
20190809_161713;-1,889;1,142;2,686;0,525;1,422;-0,046;
20190809_161713;-2,866;-7,707;15,064;-0,536;0,096;0,014;
20190809_161713;-2,808;-5,250;11,768;0,372;0,006;-0,171;
20190809_161713;-0,467;-2,796;10,494;0,173;0,107;-0,126;
20190809_161713;-1,195;-1,896;3,984;0,060;0,614;0,251;
20190809_161713;0,848;-5,727;21,526;-0,905;-1,595;-0,286;
20190809_161713;-0,567;-3,412;9,919;-0,129;-0,493;0,054;
20190809_161713;-5,885;-3,263;11,961;1,705;0,466;-0,066;
20190809_161713;-0,728;-2,215;2,873;-0,008;0,646;-0,079;
20190809_161713;-4,937;-4,855;11,013;0,821;-0,128;-0,085;
20190809_161714;-4,003;-1,417;7,391;0,104;-0,011;-0,183;
20190809_161714;-0,917;-3,742;9,464;0,221;0,629;0,038;
20190809_161714;-1,585;-4,274;18,514;-0,234;-0,648;-0,036;
20190809_161714;1,135;-2,741;18,806;-2,569;-0,498;0,115;
20190809_161714;-1,099;-0,242;2,890;-0,629;0,173;0,067;
20190809_161714;-2,799;-6,012;13,357;1,110;-0,401;-0,124;
20190809_161714;-3,761;-5,739;11,499;2,347;0,676;0,350;
20190809_161714;-2,081;-1,839;6,096;1,467;0,104;-0,417;
20190809_161714;-0,649;-2,270;4,820;-0,518;-0,531;-0,255;
20190809_161715;-1,279;-1,202;5,646;-0,081;-0,075;-0,036;
20190809_161715;-1,410;-0,433;0,821;-2,023;1,140;0,569;
20190809_161715;-0,407;-2,411;13,587;-2,587;-0,307;-0,349;
20190809_161715;1,697;-5,253;13,455;-0,619;-0,216;0,001;
20190809_161715;-3,247;-0,505;6,759;-1,448;0,050;0,157;
20190809_161715;-1,065;-0,196;1,757;-2,673;-0,597;-0,324;
20190809_161715;-0,328;-2,899;12,160;-0,386;-0,757;-0,101;
20190809_161715;-4,058;-2,320;9,045;1,449;0,196;0,159;
20190809_161715;-1,700;-1,604;10,171;3,394;0,646;0,488;
20190809_161715;-4,573;-3,919;15,253;2,257;0,963;0,222;
20190809_161716;0,381;-4,427;12,201;-0,079;-0,145;-0,113;
20190809_161716;-2,411;-8,121;19,692;1,771;0,400;-0,089;
20190809_161716;2,303;-0,117;5,092;1,109;-1,214;-0,396;
20190809_161716;-2,749;-5,595;9,050;1,461;0,013;-0,077;
20190809_161716;-0,081;-6,431;16,455;0,395;-0,745;-0,051;
20190809_161716;2,708;0,292;5,629;1,015;-1,954;-0,088;
20190809_161716;-1,389;-6,682;22,956;0,273;-0,373;-0,105;
20190809_161716;2,490;-1,607;6,242;1,444;-1,869;-0,218;
20190809_161716;-1,894;-4,829;12,945;-0,556;-0,648;-0,162;
20190809_161717;-1,604;0,256;6,572;-0,065;-0,792;-0,026;
20190809_161717;-2,916;-4,302;14,430;-0,974;0,304;0,068;
20190809_161717;0,381;-5,847;14,597;1,916;0,230;-0,058;
20190809_161717;2,847;-3,237;10,537;1,162;-0,218;-0,017;
20190809_161717;1,049;-2,988;10,149;1,146;-0,450;-0,162;
20190809_161717;-0,393;-2,224;8,236;0,384;-0,138;0,041;
20190809_161717;-3,017;-0,723;1,202;1,905;0,583;0,215;
20190809_161717;3,110;-2,828;9,021;1,651;-0,496;0,158;
20190809_161717;0,338;-1,369;6,725;0,180;-0,582;-0,042;
20190809_161717;-2,614;-1,956;5,648;-0,568;0,181;0,046;
20190809_161718;-0,105;-6,144;18,624;0,472;-0,431;0,060;
20190809_161718;0,594;-0,366;6,675;-0,811;-1,430;-0,006;
20190809_161718;-2,203;-3,699;7,819;0,850;0,095;0,064;
20190809_161718;1,245;-5,241;15,902;2,483;0,021;-0,002;
20190809_161718;3,256;-1,757;11,595;-1,260;0,002;0,089;
20190809_161718;-3,069;-5,025;16,819;-0,667;0,057;0,041;
20190809_161718;1,255;-3,768;15,225;0,574;-0,746;0,017;
20190809_161718;2,919;-1,551;8,147;-0,939;-0,169;0,235;
20190809_161718;-1,192;0,036;2,334;-1,141;0,215;0,041;
20190809_161719;-3,857;-0,883;5,385;-2,839;0,832;0,130;
20190809_161719;-3,926;-6,797;15,170;0,840;-0,055;0,117;
20190809_161719;-2,389;-3,045;8,945;0,199;0,302;0,331;
20190809_161719;3,153;-0,761;11,756;0,838;-0,923;0,207;
20190809_161719;0,330;-0,553;8,459;-1,757;0,548;0,094;
20190809_161719;-3,620;-1,147;4,089;-0,994;0,605;0,048;
20190809_161719;-3,005;-0,194;2,830;0,868;0,361;0,280;
20190809_161719;-2,832;-5,114;12,821;0,428;0,337;0,235;
20190809_161719;-0,601;-3,974;14,758;-0,407;-0,146;-0,053;
20190809_161720;-1,422;-2,430;10,082;-0,734;0,221;0,048;
20190809_161720;-1,161;-2,274;6,136;-0,262;0,202;-0,056;
20190809_161720;-2,174;-3,294;10,455;0,729;-0,167;-0,154;
20190809_161720;-1,293;-3,110;12,718;0,204;-0,158;-0,142;
20190809_161720;-3,093;-4,257;7,482;-0,153;-0,158;0,008;
20190809_161720;-1,803;-2,646;12,397;-0,018;0,207;0,100;
20190809_161720;-1,733;-2,277;9,301;-0,417;-0,268;0,119;
20190809_161720;-1,903;-0,553;8,162;-0,637;0,414;0,236;
20190809_161720;1,425;-1,920;5,344;-3,031;-1,004;0,000;
20190809_161720;-2,952;-2,081;11,480;1,406;-0,239;-0,016;
20190809_161721;-2,512;-5,521;7,317;1,436;0,262;0,228;
20190809_161721;0,426;0,333;1,913;-0,274;-0,533;0,140;
20190809_161721;-2,531;-0,520;4,458;1,944;0,721;0,313;
20190809_161721;-1,420;-3,857;9,258;2,088;0,734;0,204;
20190809_161721;0,342;-3,177;8,945;-0,167;-0,265;0,092;
20190809_161721;-5,456;-1,520;9,052;1,473;0,546;0,154;
20190809_161721;-1,295;-5,430;13,460;1,475;0,911;-0,125;
20190809_161721;-1,300;-3,431;11,205;-2,190;-0,099;0,113;
20190809_161721;-2,648;-1,618;6,287;-0,460;0,566;0,218;
20190809_161722;-1,456;0,323;6,393;-1,150;0,828;-0,190;
20190809_161722;-1,516;-0,809;3,409;-0,429;0,903;0,390;
20190809_161722;-2,679;-0,041;3,845;-3,072;0,050;0,018;
20190809_161722;-3,160;-2,842;11,463;-1,457;0,500;0,030;
20190809_161722;-1,405;-4,834;9,663;0,371;0,404;0,090;
20190809_161722;0,151;-3,220;15,143;1,416;0,125;0,164;
20190809_161722;-2,794;-7,697;18,119;0,573;0,826;0,045;
20190809_161722;-0,651;-4,946;16,743;1,742;0,792;0,051;
20190809_161722;-1,721;-1,441;5,693;-0,268;0,086;0,026;
20190809_161722;-0,781;-5,806;16,994;0,188;0,132;-0,102;
20190809_161723;-2,377;-8,313;18,969;2,566;0,570;0,147;
20190809_161723;3,517;-5,011;10,700;-0,093;-0,719;0,552;
20190809_161723;-4,262;-2,602;13,556;-2,367;0,100;-0,253;
20190809_161723;-0,328;-1,398;4,606;-1,831;-0,547;-0,051;
20190809_161723;-1,992;-2,100;7,422;0,062;0,154;-0,041;
20190809_161723;-2,995;-5,574;16,759;-0,212;-0,283;-0,048;
20190809_161723;1,595;-0,510;16,331;-0,833;-1,415;0,010;
20190809_161723;-0,735;-2,600;6,902;-1,661;-0,480;0,065;
20190809_161723;-2,464;-0,936;8,799;-0,485;-0,148;-0,023;
20190809_161724;-1,341;-0,235;3,041;-2,026;0,060;0,184;
20190809_161724;-2,430;-2,995;11,756;0,398;0,546;0,232;
20190809_161724;-2,174;-6,536;16,360;0,237;0,045;0,081;
20190809_161724;1,022;-5,547;25,264;-0,844;-2,234;0,109;
20190809_161724;1,492;-4,903;10,616;1,595;-2,692;0,002;
20190809_161724;-0,606;0,333;-2,646;1,341;1,425;-0,479;
20190809_161724;-2,033;-4,221;7,748;-2,518;-2,926;-0,688;
20190809_161724;4,592;-11,322;24,177;3,995;0,571;0,736;
20190809_161724;-1,013;-3,002;7,796;4,656;0,271;0,076;
20190809_161725;-0,175;-0,141;-0,529;1,306;-0,732;-0,001;
20190809_161725;-0,237;-2,025;4,487;0,406;0,144;0,190;
20190809_161725;-0,718;-3,438;11,902;1,635;-0,424;-0,198;
20190809_161725;-1,599;-0,740;6,809;-0,231;0,043;0,075;
20190809_161725;-1,164;-2,066;3,117;-0,802;0,215;0,209;
20190809_161725;-4,298;-4,180;6,663;1,275;0,522;0,171;
20190809_161725;-1,616;-2,358;2,902;-2,429;-0,086;-0,153;
20190809_161725;-1,623;0,752;3,270;0,637;0,658;0,267;
20190809_161725;-1,607;-4,185;7,851;-0,586;0,259;0,134;
20190809_161725;3,563;-3,225;16,747;0,949;-0,965;-0,311;
20190809_161726;1,477;-3,199;8,346;1,178;-0,653;-0,333;
20190809_161726;-5,679;-3,098;14,854;2,103;-0,100;0,089;
20190809_161726;1,894;-5,339;14,631;0,495;-0,342;-0,431;
20190809_161726;-1,542;-1,511;11,906;-0,387;0,154;-0,262;
20190809_161726;-2,258;-2,746;10,285;-0,739;-0,050;0,032;
20190809_161726;-0,481;-3,991;9,167;0,381;0,162;0,081;
20190809_161726;-1,312;-5,444;12,392;1,815;0,324;0,252;
20190809_161726;1,034;-3,180;19,012;0,494;0,019;0,006;
20190809_161726;-3,931;-7,420;16,084;2,200;0,632;0,047;
20190809_161727;-0,919;-1,209;1,908;-0,267;0,359;-0,141;
20190809_161727;-0,816;-2,030;10,748;-2,083;-0,815;-0,358;
20190809_161727;-2,423;-4,374;6,381;0,812;0,487;0,145;
20190809_161727;-0,345;-3,239;10,896;1,419;0,642;0,440;
20190809_161727;0,417;-0,843;4,743;0,469;0,353;0,050;
20190809_161727;-1,070;0,342;6,266;0,171;0,511;0,015;
20190809_161727;-2,854;-3,304;14,890;-2,461;0,244;0,093;
20190809_161727;-1,137;-3,757;10,915;-0,672;0,429;0,052;
20190809_161727;-0,431;-2,351;5,634;-0,870;-0,556;-0,038;
20190809_161727;0,062;-3,881;21,785;0,144;-0,007;0,063;
20190809_161728;0,158;-2,456;12,198;-1,175;-0,058;-0,044;
20190809_161728;-1,477;1,460;4,628;-1,817;-0,722;-0,166;
20190809_161728;-0,855;-5,708;7,982;-0,130;0,087;-0,058;
20190809_161728;-4,963;-5,478;16,245;1,087;-0,027;0,163;
20190809_161728;0,888;-4,417;11,499;-0,454;-0,120;-0,072;
20190809_161728;-1,300;-1,381;11,406;-0,116;-0,312;0,123;
20190809_161728;-1,063;-0,500;8,092;2,064;-0,761;0,346;
20190809_161728;1,195;-4,927;13,032;0,786;0,199;0,120;
20190809_161728;-1,559;-2,919;7,628;0,815;0,509;0,112;
20190809_161729;0,254;0,457;4,836;0,379;-0,018;-0,379;
20190809_161729;-2,492;-2,593;7,266;1,298;1,327;0,311;
20190809_161729;0,117;-2,078;5,294;1,137;0,457;0,094;
20190809_161729;-0,117;-0,026;5,162;-0,627;-0,949;-0,104;
20190809_161729;-1,463;-0,771;2,198;-0,097;-0,666;-0,510;
20190809_161729;-0,455;-2,148;5,253;-0,590;0,063;0,225;
20190809_161729;-5,571;0,692;4,128;-0,392;0,727;0,226;
20190809_161729;1,094;-4,369;14,389;-0,990;-0,693;-0,062;
20190809_161729;-0,189;-3,701;15,330;1,956;-0,335;0,487;
20190809_161729;0,792;-0,448;7,077;2,137;-0,898;-0,795;
20190809_161730;4,080;-6,869;15,040;2,077;0,208;-0,180;
20190809_161730;-3,323;-1,006;4,393;3,102;0,527;-0,139;
20190809_161730;-1,267;0,153;5,974;-0,739;-0,346;0,103;
20190809_161730;-3,314;-3,771;7,444;-0,963;0,594;0,071;
20190809_161730;-1,006;-2,761;12,838;-0,019;0,089;0,125;
20190809_161730;-0,934;-0,053;5,382;0,481;0,119;0,076;
20190809_161730;0,881;-4,513;15,687;-0,791;0,341;0,091;
20190809_161730;-1,305;-1,891;4,302;1,126;0,190;0,001;
20190809_161730;1,537;-3,146;14,849;-0,131;0,250;0,001;
20190809_161731;1,120;-0,505;11,205;0,057;-0,305;-0,027;
20190809_161731;0,385;-8,253;24,220;1,331;-0,147;0,073;
20190809_161731;2,404;-7,618;24,524;1,301;-0,338;0,181;
20190809_161731;-3,120;-4,458;10,807;0,182;0,248;-0,299;
20190809_161731;-0,110;-2,078;3,527;-0,020;0,451;-0,068;
20190809_161731;-0,862;-7,405;17,075;0,993;0,658;0,021;
20190809_161731;-0,029;-4,257;16,391;2,101;0,272;0,073;
20190809_161731;6,397;-6,098;23,473;2,712;-0,185;-0,111;
20190809_161731;3,934;-6,108;19,625;0,883;-1,964;0,698;
20190809_161731;-0,630;-1,413;10,530;0,892;0,152;-0,529;
20190809_161732;-0,709;-7,288;20,006;1,287;-0,459;-0,569;
20190809_161732;-1,020;-3,620;7,159;-0,272;0,225;-0,112;
20190809_161732;-0,017;-3,218;9,823;-0,435;-0,456;0,036;
20190809_161732;0,271;-1,013;11,351;0,094;-0,760;0,074;
20190809_161732;-2,064;-1,623;3,752;0,066;0,521;-0,206;
20190809_161732;-1,970;-3,460;3,383;1,268;0,760;0,225;
20190809_161732;-1,075;-0,934;1,777;0,397;0,681;-0,008;
20190809_161732;-4,082;1,314;7,453;1,978;1,540;0,309;
20190809_161732;1,870;-5,983;8,080;0,634;0,062;-0,014;
20190809_161733;-0,812;-3,524;12,847;1,613;-0,116;0,091;
20190809_161733;1,753;-4,942;8,124;1,326;-0,226;0,359;
20190809_161733;-3,747;-1,870;10,676;2,084;0,015;-0,258;
20190809_161733;0,280;0,170;3,223;0,352;0,054;-0,107;
20190809_161733;-2,133;0,460;4,503;0,500;0,834;0,344;
20190809_161733;-1,097;-1,532;4,978;-1,416;0,140;-0,126;
20190809_161733;-0,747;-3,785;7,015;0,520;0,460;0,172;
20190809_161733;-2,162;-2,145;9,112;1,015;0,311;0,202;
20190809_161733;-1,319;-2,179;4,937;0,208;0,661;0,272;
20190809_161733;-4,197;-3,519;12,376;1,325;0,027;0,060;
20190809_161734;-0,148;-2,425;6,234;0,256;-0,117;-0,119;
20190809_161734;-1,113;-1,487;4,460;-0,618;-0,512;-0,099;
20190809_161734;-1,468;-1,350;8,188;0,198;0,206;0,075;
20190809_161734;-0,934;-1,674;8,775;-0,127;0,279;0,128;
20190809_161734;-4,039;-6,290;10,221;-0,859;0,178;-0,039;
20190809_161734;-0,426;-2,990;21,979;1,323;-0,509;0,110;
20190809_161734;2,933;-2,193;3,512;0,538;-0,746;-0,163;
20190809_161734;-0,613;-1,448;8,782;0,457;-0,149;0,042;
20190809_161734;-0,807;-1,628;1,839;-0,670;0,368;0,017;
20190809_161735;-4,223;0,156;0,230;-0,020;0,590;0,246;
20190809_161735;-3,783;-0,031;0,376;0,787;1,472;0,207;
20190809_161735;0,785;-3,065;15,977;-4,068;-1,148;0,098;
20190809_161735;-1,312;-2,155;7,381;0,467;0,164;0,051;
20190809_161735;-4,338;-4,195;15,354;-0,370;-0,431;-0,461;
20190809_161735;-1,259;-0,486;3,778;0,135;0,333;-0,041;
20190809_161735;-2,054;-1,633;5,219;-1,514;0,007;0,087;
20190809_161735;-1,542;-0,991;5,679;-2,269;0,046;0,226;
20190809_161735;-2,612;-2,172;11,815;-2,308;-0,139;0,113;
20190809_161735;0,347;0,132;6,179;-2,045;-1,942;-0,066;
20190809_161736;-2,823;-3,062;13,841;-2,068;0,451;-0,019;
20190809_161736;-3,041;-1,140;5,717;-0,605;0,520;-0,052;
20190809_161736;-0,855;0,103;-2,442;-1,812;0,159;-0,168;
20190809_161736;-3,402;-3,895;13,336;-0,164;-0,001;-0,155;
20190809_161736;1,944;-2,626;4,029;2,169;2,569;1,545;
20190809_161736;1,377;-0,694;3,606;-1,549;-0,938;-0,346;
20190809_161736;-1,448;-3,153;11,380;-0,622;-0,425;-0,149;
20190809_161736;-0,718;-1,702;13,429;0,343;-0,932;-0,377;
20190809_161736;-1,183;-3,330;6,189;-4,911;-2,149;-0,856;
20190809_161737;-4,034;-4,858;5,844;-0,430;-0,105;-0,369;
20190809_161737;-0,934;-3,091;15,706;0,243;0,080;0,103;
20190809_161737;-1,621;-0,271;0,251;-0,533;0,168;0,269;
20190809_161737;-0,857;-3,060;11,698;-0,747;-0,315;0,376;
20190809_161737;-0,816;-0,462;6,838;-0,049;0,204;-0,066;
20190809_161737;-3,065;-0,704;4,908;-0,417;0,367;-0,011;
20190809_161737;-1,056;-7,412;20,803;0,282;0,025;0,119;
20190809_161737;-0,204;-2,531;7,472;-0,390;-0,051;0,099;
20190809_161737;-1,824;-1,125;7,391;-0,079;-0,200;0,085;
20190809_161737;-1,384;-3,014;4,937;-0,618;-0,218;0,010;
20190809_161738;-0,953;-0,670;9,536;0,336;0,113;-0,104;
20190809_161738;-9,292;0,476;1,044;-0,354;-0,003;-0,430;
20190809_161738;0,919;-2,916;1,844;-3,467;-1,535;0,074;
20190809_161738;-3,069;-4,999;9,675;1,024;0,539;-0,289;
20190809_161738;1,549;-6,239;17,600;-0,110;-0,570;0,067;
20190809_161738;0,134;-0,548;4,918;-0,651;-0,510;0,076;
20190809_161738;-1,051;-1,290;3,098;-4,368;-1,619;-0,363;
20190809_161738;-0,807;-2,703;8,408;-0,323;0,210;0,026;
20190809_161738;-0,220;-4,037;10,678;-0,067;-0,017;0,058;
20190809_161739;-2,234;-2,172;10,211;0,029;0,086;0,066;
20190809_161739;-1,197;-2,624;12,447;-0,963;-0,367;0,079;
20190809_161739;-1,223;-2,428;8,382;0,118;0,212;0,009;
20190809_161739;-0,146;-2,354;11,732;0,996;-0,163;-0,191;
20190809_161739;-0,553;-1,137;5,344;-0,899;-0,380;0,001;
20190809_161739;-1,403;0,431;0,962;0,326;0,479;-0,309;
20190809_161739;-2,138;-2,368;7,140;0,104;0,109;0,115;
20190809_161739;-1,118;-2,966;9,234;0,347;-0,101;0,159;
20190809_161739;-1,331;-2,567;13,352;0,014;-0,030;0,082;
20190809_161740;-1,369;-2,308;8,770;-0,365;-0,084;0,025;
20190809_161740;-1,477;-0,960;8,274;-0,286;0,203;-0,073;
20190809_161740;-2,155;-2,547;3,587;-0,722;0,414;0,092;
20190809_161740;-1,760;-0,828;3,053;0,507;0,222;0,024;
20190809_161740;-2,267;-1,362;6,689;0,482;0,045;0,039;
20190809_161740;-0,785;-2,878;4,345;0,560;0,039;-0,030;
20190809_161740;-2,880;-0,464;5,004;0,097;0,302;0,173;
20190809_161740;-1,702;-3,646;6,448;0,253;0,308;-0,001;
20190809_161740;-3,132;-5,691;7,851;1,208;-0,154;-0,103;
20190809_161740;1,393;-0,436;7,302;-1,287;-0,077;-0,030;
20190809_161741;-2,014;-1,750;8,322;0,102;0,357;0,013;
20190809_161741;-2,938;-3,108;5,928;-0,584;0,122;0,066;
20190809_161741;-4,226;0,941;1,781;0,038;0,284;0,052;
20190809_161741;-1,951;-5,128;14,277;-1,387;0,067;-0,133;
20190809_161741;-2,658;-2,442;7,977;-0,093;0,230;0,022;
20190809_161741;-2,569;-1,137;5,610;-0,213;-0,012;0,000;
20190809_161741;-0,694;0,292;5,100;0,140;0,023;0,000;
20190809_161741;-4,029;-4,647;7,963;-0,252;0,562;-0,087;
20190809_161741;-3,316;-2,464;2,782;0,075;0,339;0,094;
20190809_161742;-1,872;-1,729;7,470;0,002;-0,010;0,065;
20190809_161742;-3,225;-2,904;7,604;-0,202;0,520;0,158;
20190809_161742;-3,172;-1,293;2,942;-0,101;0,588;-0,047;
20190809_161742;-0,627;-2,160;9,165;0,603;-0,084;0,064;
20190809_161742;0,062;-1,707;5,825;-0,318;-0,070;-0,119;
20190809_161742;-0,247;-5,983;21,107;0,501;-0,099;-0,180;
20190809_161742;-1,647;-1,800;0,960;0,637;0,334;-0,057;
20190809_161742;-0,160;-3,730;12,404;2,412;1,006;-0,085;
20190809_161742;0,730;-0,625;3,021;0,635;-0,145;-0,032;
20190809_161742;1,147;-3,390;7,080;-0,458;-0,855;-0,112;
20190809_161743;0,338;-4,810;6,754;0,074;-0,280;-0,128;
20190809_161743;-0,840;-0,010;4,353;0,538;-0,070;-0,003;
20190809_161743;3,211;-7,561;23,178;-0,286;-0,252;-0,166;
20190809_161743;-1,884;-2,567;20,178;1,937;-0,531;-0,243;
20190809_161743;-0,455;-4,401;3,232;0,224;0,354;0,068;
20190809_161743;-0,860;-3,062;6,833;-0,046;-0,084;0,065;
20190809_161743;-0,994;-1,903;10,386;0,291;0,070;0,024;
20190809_161743;-5,351;-1,049;3,438;-0,394;0,898;-0,280;
20190809_161743;1,255;-0,745;7,094;0,304;-0,146;-0,064;
20190809_161744;-2,650;-2,325;5,906;0,094;-0,034;0,008;
20190809_161744;-2,332;-6,029;9,251;-0,018;0,266;-0,048;
20190809_161744;3,227;-0,086;-0,249;2,144;3,811;1,782;
20190809_161744;2,737;-10,973;19,453;-4,267;-3,396;-0,810;
20190809_161744;-8,375;-4,666;20,561;1,148;1,677;0,426;
20190809_161744;1,707;-3,215;10,154;0,570;-0,415;-0,016;
20190809_161744;-0,132;-2,667;14,222;-0,479;-0,554;-0,019;
20190809_161744;-1,034;-1,338;4,906;-0,311;-0,135;-0,038;
20190809_161744;-2,696;-2,274;4,978;-0,349;0,254;0,011;
20190809_161744;0,012;-0,081;-1,346;-0,405;0,414;0,074;
20190809_161745;-0,445;-0,127;-0,860;0,675;0,315;0,114;
20190809_161745;1,367;-3,235;7,999;1,484;0,426;-0,068;
20190809_161745;-2,607;-3,754;10,166;1,477;0,082;0,103;
20190809_161745;1,944;-2,227;14,868;2,399;0,385;-0,107;
20190809_161745;-0,773;-5,164;13,317;-0,049;-0,098;-0,287;
20190809_161745;-0,031;-3,170;6,972;1,067;-0,069;-0,185;
20190809_161745;-0,086;-3,919;8,832;1,667;-0,069;-0,532;
20190809_161745;1,166;-6,479;19,680;1,092;-0,145;-0,210;
20190809_161745;0,371;-4,137;9,826;-1,883;-2,080;-0,098;
20190809_161746;-1,602;0,888;3,577;-0,163;0,447;-0,114;
20190809_161746;-3,309;-3,206;8,959;0,282;0,637;-0,098;
20190809_161746;-1,480;-3,021;8,641;0,391;0,364;-0,285;
20190809_161746;1,116;-2,775;13,829;-0,001;-0,055;-0,073;
20190809_161746;-0,338;-0,041;0,484;-1,274;-0,548;0,019;
20190809_161746;-1,970;-7,626;22,424;0,371;-0,010;0,030;
20190809_161746;0,905;-3,658;14,341;-0,388;-0,425;0,041;
20190809_161746;-0,941;-2,746;6,967;-1,071;-0,350;-0,008;
20190809_161746;-1,499;-1,779;6,474;0,081;-0,012;-0,035;
20190809_161747;-0,989;-1,532;3,699;0,194;0,238;-0,027;
20190809_161747;-2,696;-1,683;10,649;-0,047;0,310;-0,039;
20190809_161747;-2,119;-4,171;9,237;0,223;0,100;0,028;
20190809_161747;-4,266;0,074;1,283;-0,246;0,520;0,136;
20190809_161747;-1,956;-4,096;8,995;1,402;-0,054;0,207;
20190809_161747;-5,126;-3,220;5,861;1,371;0,620;-0,100;
20190809_161747;-1,535;-3,017;7,676;1,375;0,994;0,127;
20190809_161747;-0,036;-5,377;12,854;0,433;0,205;-0,123;
20190809_161747;0,192;-4,398;20,315;-0,099;-0,244;0,125;
20190809_161747;0,577;-3,180;13,537;-2,660;-1,014;-0,005;
20190809_161748;-0,371;-1,676;1,700;0,704;-0,102;-0,028;
20190809_161748;2,310;-2,274;8,475;1,000;-0,057;0,002;
20190809_161748;-0,680;-3,165;10,568;0,082;0,173;0,015;
20190809_161748;-1,472;-0,508;4,190;0,036;0,417;0,081;
20190809_161748;0,206;-3,278;14,418;-0,071;-0,423;-0,079;
20190809_161748;-1,925;-2,052;5,303;0,055;-0,122;-0,124;
20190809_161748;-1,068;-5,045;11,916;-0,057;0,003;-0,084;
20190809_161748;-2,231;-1,446;8,930;0,048;-0,068;0,042;
20190809_161748;-0,153;-1,496;10,113;-0,344;0,115;0,095;
20190809_161749;-1,489;0,630;2,116;0,433;-0,456;0,001;
20190809_161749;-0,773;-7,331;22,484;1,343;0,522;0,349;
20190809_161749;1,676;-4,597;13,642;0,081;-0,230;-0,138;
20190809_161749;-0,484;-0,452;5,353;-0,492;0,343;-0,089;
20190809_161749;-1,966;-0,010;6,376;-0,196;0,274;-0,089;
20190809_161749;-0,673;-2,650;10,113;0,107;0,056;-0,150;
20190809_161749;-2,320;-2,416;8,770;-0,004;0,163;-0,072;
20190809_161749;-2,095;-3,622;7,776;0,130;0,087;-0,031;
20190809_161749;-1,106;-1,901;3,833;-0,098;0,022;0,071;
20190809_161749;-1,398;-2,128;10,908;0,144;0,213;0,106;
20190809_161750;0,457;-5,705;14,162;0,187;0,257;0,066;
20190809_161750;-0,840;-4,652;10,839;0,616;-0,054;-0,219;
20190809_161750;0,678;-4,858;12,081;0,527;-0,328;-0,046;
20190809_161750;1,358;-3,862;12,895;0,013;-2,106;0,770;
20190809_161750;-1,501;-1,451;4,539;0,035;0,579;0,067;
20190809_161750;-0,836;-0,371;8,095;0,266;-0,309;0,019;
20190809_161750;-0,591;-3,644;10,084;0,029;0,197;0,062;
20190809_161750;-1,046;-4,410;15,787;0,102;0,098;0,024;
20190809_161750;-0,010;-5,241;16,850;0,142;-0,370;-0,076;
20190809_161751;-0,455;0,093;2,255;0,508;-1,051;-0,153;
20190809_161751;-2,610;-1,307;8,612;-0,204;0,093;0,109;
20190809_161751;-1,508;-5,856;14,346;-0,251;0,545;-0,043;
20190809_161751;-0,764;-0,022;5,114;0,041;-0,120;0,154;
20190809_161751;-1,252;-2,351;9,864;0,018;-0,075;0,079;
20190809_161751;0,318;-3,685;7,520;-0,235;0,463;-0,093;
20190809_161751;-0,618;-5,193;15,919;0,293;0,600;-0,155;
20190809_161751;-0,048;-1,156;2,337;0,152;0,255;0,121;
20190809_161751;-2,995;-2,332;7,575;-0,582;0,259;-0,022;
20190809_161752;-3,191;-1,678;5,717;-0,065;0,135;0,000;
20190809_161752;-2,789;0,747;-1,865;-0,396;-0,106;0,073;
20190809_161752;-1,578;-0,077;9,584;-1,406;0,150;-0,146;
20190809_161752;-1,669;-2,279;6,658;-0,228;0,263;-0,084;
20190809_161752;-1,264;-4,029;12,244;-0,388;0,208;-0,042;
20190809_161752;-1,427;-3,366;12,558;0,207;0,272;-0,131;
20190809_161752;-6,297;-0,014;1,590;0,389;0,827;-0,381;
20190809_161752;-2,157;-0,615;0,757;0,085;0,794;-0,019;
20190809_161752;-6,285;1,779;-0,134;-0,314;1,340;-0,124;
20190809_161752;-0,005;-2,397;14,099;-0,619;-0,529;0,105;
20190809_161753;-0,486;-3,100;3,067;0,078;0,342;-0,181;
20190809_161753;-1,156;0,543;1,104;-0,323;0,669;-0,637;
20190809_161753;-4,496;-6,225;18,320;0,473;-0,026;0,055;
20190809_161753;-3,862;-7,408;17,784;0,541;-0,272;-0,009;
20190809_161753;-0,283;0,022;3,338;-0,349;0,341;-0,106;
20190809_161753;-1,417;0,323;5,593;-0,297;0,185;-0,166;
20190809_161753;-1,915;0,268;1,142;-0,921;0,613;-0,317;
20190809_161753;-1,523;-7,001;17,909;0,052;0,211;-0,418;
20190809_161753;1,276;-3,038;5,001;1,425;-0,656;-0,107;
20190809_161753;0,259;-1,116;-1,793;1,705;-2,693;-0,070;
20190809_161754;-0,745;-8,080;14,724;-0,117;-0,517;0,531;
20190809_161754;-0,055;-1,824;12,268;-1,468;-3,692;-0,444;
20190809_161754;-1,401;-5,035;24,509;0,906;1,702;0,206;
20190809_161754;4,362;0,089;26,676;0,344;0,466;0,880;
20190809_161754;-2,363;-3,994;14,183;0,286;1,291;-0,232;
20190809_161754;-1,233;-2,152;12,778;0,212;-0,389;-0,103;
20190809_161754;0,764;-6,304;22,261;0,112;-0,353;-0,058;
20190809_161754;-0,148;-7,070;12,670;0,757;-1,432;-0,313;
20190809_161754;1,255;-0,860;14,554;-0,169;-1,415;-0,262;
20190809_161755;-1,006;-1,334;8,600;0,027;-1,197;-0,150;
20190809_161755;-0,955;-2,739;2,198;-1,064;-0,234;-0,102;
20190809_161755;-0,630;0,800;5,526;0,055;-0,184;0,044;
20190809_161755;-1,846;-0,010;2,641;-0,104;1,213;-0,122;
20190809_161755;-0,464;-1,437;13,800;0,297;0,609;0,141;
20190809_161755;0,663;0,261;-4,120;-0,213;-1,700;-0,071;
20190809_161755;-4,628;-7,247;9,732;-0,456;-0,222;-0,101;
20190809_161755;-9,048;1,640;-2,653;0,389;0,509;0,321;
20190809_161755;-0,591;1,832;2,286;-0,673;-0,768;0,187;
20190809_161756;0,388;-3,290;13,499;1,609;-0,279;0,300;
20190809_161756;-1,992;-1,197;2,116;-0,380;1,204;0,410;
20190809_161756;0,273;-8,813;29,042;-0,509;-0,072;0,088;
20190809_161756;2,219;-4,113;12,752;0,644;1,861;1,314;
20190809_161756;3,115;-1,920;11,226;1,158;0,090;-0,075;
20190809_161756;-3,019;-10,202;13,654;1,839;1,216;0,349;
20190809_161756;-3,201;-1,470;5,988;0,503;0,228;0,143;
20190809_161756;-3,038;-0,134;2,131;-0,530;0,560;0,287;
20190809_161756;-3,637;-4,697;19,719;0,077;0,177;0,103;
20190809_161756;-0,275;-1,372;8,308;-0,187;0,201;0,188;
20190809_161757;-0,345;0,215;-2,964;-0,411;-0,779;-0,053;
20190809_161757;-2,025;-3,723;11,624;-0,465;-0,557;-0,052;
20190809_161757;-0,697;0,931;5,157;-0,289;-0,180;0,142;
20190809_161757;0,268;-4,250;9,416;0,114;-0,206;0,006;
20190809_161757;0,184;-0,136;1,719;0,443;1,550;0,295;
20190809_161757;0,565;-3,491;14,839;0,314;0,838;0,204;
20190809_161757;-2,727;-5,104;21,131;0,149;-0,180;-0,003;
20190809_161757;0,096;-1,319;4,815;-0,443;0,129;0,015;
20190809_161757;-0,493;-3,651;13,865;0,075;-0,119;-0,046;
20190809_161758;-0,601;-5,377;13,297;-0,104;0,052;0,059;
20190809_161758;-0,467;-3,505;11,248;-0,006;-0,111;0,065;
20190809_161758;-2,339;-1,470;9,685;-0,400;0,073;0,007;
20190809_161758;-2,954;-2,126;5,564;-0,299;0,184;0,063;
20190809_161758;-1,784;-1,310;11,291;-0,154;0,277;0,068;
20190809_161758;-2,519;-1,087;3,752;0,129;-0,051;-0,101;
20190809_161758;-2,052;-2,653;9,448;0,133;0,067;-0,023;
20190809_161758;-2,452;-2,274;5,720;0,006;0,071;0,126;
20190809_161758;-0,177;-3,172;10,673;0,217;-0,280;0,033;
20190809_161759;0,402;-2,473;17,710;-0,064;-0,175;0,073;
20190809_161759;-1,123;-2,591;11,945;-0,014;-0,278;-0,090;
20190809_161759;-1,788;-5,602;9,843;0,071;-0,070;-0,065;
20190809_161759;-0,845;-2,054;8,236;0,183;-0,018;0,023;
20190809_161759;-0,797;-2,885;12,239;-0,112;-0,122;-0,037;
20190809_161759;-2,406;-2,217;11,226;0,085;0,039;0,002;
20190809_161759;-3,196;-3,539;9,869;0,127;-0,112;-0,068;
20190809_161759;-1,695;-3,445;5,176;-0,190;0,078;0,032;
20190809_161759;-1,372;-2,093;11,691;0,542;-0,326;0,083;
20190809_161759;-0,733;-4,568;15,203;-0,096;-0,068;0,075;
20190809_161800;0,201;-4,834;12,421;0,502;-0,673;-0,036;
20190809_161800;0,838;-5,567;12,881;0,212;-0,442;0,023;
20190809_161800;-4,987;-10,918;29,671;1,553;-4,217;-0,500;
20190809_161800;0,491;-2,296;11,545;1,937;1,272;-0,030;
20190809_161800;-1,743;-0,232;2,344;-0,472;-0,357;0,112;
20190809_161800;-2,356;-0,694;2,207;-0,569;0,296;0,038;
20190809_161800;4,829;-10,333;26,224;1,312;0,306;1,054;
20190809_161800;-1,094;-0,515;9,412;0,683;0,426;-0,016;
20190809_161800;2,610;-10,894;29,839;0,130;-0,511;-0,136;
20190809_161801;1,195;-6,697;13,499;-1,023;1,002;0,040;
20190809_161801;-0,031;-3,548;6,273;0,424;0,455;0,068;
20190809_161801;-0,821;-1,041;2,799;-0,171;0,058;-0,033;
20190809_161801;-4,738;-9,191;28,232;0,477;1,011;-0,077;
20190809_161801;1,360;-2,428;15,957;1,766;1,216;-0,168;
20190809_161801;-2,263;-3,230;12,510;0,151;0,157;0,005;
20190809_161801;-1,918;-0,733;1,824;-0,318;0,299;-0,004;
20190809_161801;-1,492;-3,704;7,772;-0,170;0,247;0,051;
20190809_161801;-2,162;-0,505;0,663;-0,139;0,137;0,091;
20190809_161802;0,699;-2,389;21,390;0,570;-0,475;0,024;
20190809_161802;0,232;-7,123;21,414;-0,228;-0,059;-0,008;
20190809_161802;-2,184;-0,694;0,393;-0,856;0,455;-0,023;
20190809_161802;-3,486;-0,196;5,816;-0,439;0,493;0,258;
20190809_161802;-1,980;-0,599;5,262;-0,568;0,070;0,000;
20190809_161802;-2,461;-1,164;2,064;-0,507;0,163;0,168;
20190809_161802;-1,432;-1,484;1,930;0,424;0,336;-0,071;
20190809_161802;-0,663;-2,234;11,150;0,750;-0,039;-0,180;
20190809_161802;-1,618;-1,992;7,887;0,076;-0,040;-0,077;
20190809_161802;-0,843;-5,205;11,674;0,277;-0,183;-0,036;
20190809_161803;-0,242;-7,659;18,622;-0,245;0,288;0,378;
20190809_161803;-0,776;-3,397;13,223;0,809;-0,177;-0,006;
20190809_161803;-1,506;-3,055;8,866;-0,178;0,175;0,121;
20190809_161803;-3,160;-0,910;7,537;-0,118;0,110;0,180;
20190809_161803;-0,285;-4,132;13,937;-0,276;0,047;0,047;
20190809_161803;-1,415;-3,912;16,266;-0,019;-0,074;-0,083;
20190809_161803;-0,141;-3,187;13,209;0,414;-0,397;-0,165;
20190809_161803;-1,674;-0,362;2,363;-0,151;0,135;0,013;
20190809_161803;-3,019;-1,111;8,547;0,031;-0,004;-0,033;
20190809_161804;-1,978;-0,673;0,663;-0,742;0,198;0,072;
20190809_161804;-4,096;-3,833;17,083;0,050;0,335;0,106;
20190809_161804;-2,418;-7,930;18,538;0,933;1,572;0,748;
20190809_161804;4,286;-2,926;8,598;3,192;0,324;-0,770;
20190809_161804;-2,389;-2,921;6,663;0,783;0,993;0,752;
20190809_161804;1,142;-2,351;12,007;0,463;-0,533;-0,052;
20190809_161804;0,824;-8,571;21,981;0,398;1,066;0,220;
20190809_161804;-4,468;0,330;14,083;0,216;0,762;0,310;
20190809_161804;-7,386;-14,600;45,614;0,727;0,852;-0,675;
20190809_161804;4,132;-2,878;7,013;3,566;2,975;0,270;
20190809_161805;-5,191;-14,269;23,971;-2,189;-0,354;-0,879;
20190809_161805;-1,346;0,172;-0,589;-0,407;-0,113;0,068;
20190809_161805;-2,729;-2,974;7,561;-0,542;-0,097;0,062;
20190809_161805;-0,527;-3,182;8,928;-0,130;0,302;0,058;
20190809_161805;-0,900;-1,741;6,993;0,127;0,282;0,062;
20190809_161805;-2,085;-4,053;12,342;0,221;0,431;0,009;
20190809_161805;0,627;-1,508;7,705;-0,088;-0,219;-0,066;
20190809_161805;-1,252;-3,953;8,389;0,313;0,512;-0,091;
20190809_161805;-1,652;-2,871;12,981;0,322;0,046;-0,025;
20190809_161805;-2,035;-4,855;11,028;0,038;-0,365;0,079;
20190809_161806;2,614;-2,049;13,221;-0,677;-1,040;0,161;
20190809_161806;-2,842;-4,942;10,994;0,272;0,443;0,144;
20190809_161806;1,132;-2,756;12,804;-0,048;-0,482;-0,125;
20190809_161806;0,735;-3,917;6,314;0,388;0,865;0,206;
20190809_161806;-0,567;-5,334;16,228;1,278;1,434;0,147;
20190809_161806;-0,165;-1,616;5,940;-0,066;-0,087;0,019;
20190809_161806;-1,255;-3,105;9,021;-0,214;-0,085;0,178;
20190809_161806;-2,983;-0,242;3,160;0,006;0,553;0,325;
20190809_161806;0,678;-4,554;12,996;-0,090;0,300;0,290;
20190809_161807;0,333;-3,117;4,120;-0,249;0,120;0,059;
20190809_161807;-1,489;-0,283;6,376;-0,358;0,498;0,185;
20190809_161807;-0,594;-4,628;14,214;-0,184;0,295;0,065;
20190809_161807;-1,920;-2,138;7,764;0,073;0,238;0,032;
20190809_161807;-0,500;-2,344;7,807;-0,073;-0,113;-0,020;
20190809_161807;-0,747;-0,505;5,760;-0,292;0,135;0,012;
20190809_161807;-1,791;-3,773;10,400;0,093;0,072;0,010;
20190809_161807;0,443;-1,628;7,733;-0,011;-0,055;-0,103;
20190809_161807;0,132;-1,300;5,200;-0,144;-0,009;-0,053;
20190809_161807;-1,492;-0,237;3,026;0,017;0,126;-0,052;
20190809_161808;-0,836;-2,923;8,880;0,143;0,030;0,007;
20190809_161808;-1,434;-6,993;19,937;0,249;-0,154;-0,052;
20190809_161808;0,596;-3,790;14,799;-0,932;-1,152;0,055;
20190809_161808;-1,188;-0,036;6,529;0,115;-0,047;-0,085;
20190809_161808;0,213;-3,105;12,124;-0,262;-0,741;-0,056;
20190809_161808;-2,579;-3,165;9,692;0,159;0,083;-0,087;
20190809_161808;-0,591;-2,763;11,025;0,005;0,056;-0,047;
20190809_161808;-0,965;-4,099;9,498;0,365;-0,114;-0,008;
20190809_161808;-2,138;-3,548;6,120;0,150;0,991;0,032;
20190809_161809;-0,757;-3,704;11,504;0,059;0,705;0,191;
20190809_161809;-0,460;-2,480;10,874;-0,044;0,800;0,186;
20190809_161809;-0,500;-1,908;5,732;0,047;0,463;0,050;
20190809_161809;-0,685;-2,253;8,473;-0,072;0,258;0,000;
20190809_161809;-1,209;-3,950;13,326;-0,293;-0,230;-0,026;
20190809_161809;-2,354;-1,721;4,980;-0,318;-0,114;-0,120;
20190809_161809;-2,440;-1,978;4,590;0,108;0,355;0,043;
20190809_161809;-1,262;-0,742;7,171;0,018;0,394;0,097;
20190809_161809;-0,893;-2,332;9,416;-0,118;-0,092;0,078;
20190809_161809;-1,437;-3,455;14,011;-0,038;-0,109;0,105;
20190809_161810;-1,839;-6,881;19,477;0,495;-0,748;-0,086;
20190809_161810;0,749;-0,287;1,384;0,406;-0,798;0,031;
20190809_161810;-1,204;-2,509;5,035;-0,148;-0,722;0,094;
20190809_161810;-0,951;0,050;2,363;0,799;-1,564;-0,409;
20190809_161810;-2,911;-5,839;9,436;0,302;0,562;-0,052;
20190809_161810;-1,705;-4,460;25,489;1,011;-0,466;-0,062;
20190809_161810;-1,041;-4,264;9,100;-0,150;-0,521;-0,234;
20190809_161810;-1,171;-3,936;7,580;-0,479;-0,186;0,024;
20190809_161810;-3,127;-1,894;7,381;0,212;-0,141;0,007;
20190809_161810;-2,382;-2,890;10,652;-0,051;0,256;0,100;
20190809_161811;-3,196;-0,840;6,965;-0,119;0,367;0,162;
20190809_161811;-3,349;-0,546;1,958;-0,356;0,498;0,129;
20190809_161811;-1,580;-1,343;4,863;-0,171;0,204;0,039;
20190809_161811;-0,290;-2,492;10,367;-0,179;-0,095;-0,168;
20190809_161811;-2,210;-4,781;9,898;-0,362;0,277;-0,092;
20190809_161811;-0,457;-4,671;16,108;0,356;-0,366;-0,206;
20190809_161811;-1,226;-3,203;10,534;0,177;-0,217;-0,138;
20190809_161811;-2,160;-1,982;4,551;-0,358;0,312;0,062;
20190809_161811;-0,381;-1,949;3,278;-0,059;-0,043;0,005;
20190809_161812;0,522;-2,519;9,878;0,456;-0,513;-0,054;
20190809_161812;-0,984;-2,519;15,929;0,285;-0,460;-0,101;
20190809_161812;0,287;-4,470;7,369;-0,468;0,197;-0,051;
20190809_161812;-2,828;-3,256;15,416;0,318;0,131;0,047;
20190809_161812;-1,477;-2,799;8,128;-0,097;-0,283;-0,016;
20190809_161812;-2,763;-2,837;9,680;0,101;0,172;-0,050;
20190809_161812;-1,820;-4,331;12,857;0,716;-0,496;-0,183;
20190809_161812;-0,685;-3,369;8,650;-0,113;-0,207;-0,098;
20190809_161812;-3,251;-0,749;5,073;-0,126;0,410;0,098;
20190809_161813;-2,423;-1,477;6,823;0,058;-0,114;0,018;
20190809_161813;-2,806;-4,096;13,800;0,304;-0,099;-0,120;
20190809_161813;-1,841;-1,779;5,016;0,310;-0,217;0,015;
20190809_161813;-0,350;-5,313;14,336;0,119;-0,148;-0,021;
20190809_161813;-0,891;-3,958;20,887;-0,101;0,064;-0,068;
20190809_161813;2,744;-5,150;12,546;0,999;-1,085;-0,182;
20190809_161813;-1,410;-3,814;11,971;0,140;-0,085;-0,059;
20190809_161813;-0,508;-3,658;10,951;-0,294;-0,184;-0,123;
20190809_161813;-2,557;-2,768;10,554;0,031;0,074;-0,059;
20190809_161813;-1,587;-2,665;14,801;-0,065;-0,098;-0,111;
20190809_161814;-1,791;-2,804;10,898;0,012;0,022;-0,026;
20190809_161814;-0,436;-1,240;5,792;-0,806;-0,074;0,008;
20190809_161814;-3,261;-1,290;4,800;-0,145;0,184;-0,048;
20190809_161814;-1,300;-0,290;-0,939;-0,150;0,341;0,064;
20190809_161814;-1,405;-0,795;0,194;-0,344;0,516;0,295;
20190809_161814;0,713;-5,021;14,229;-0,179;0,043;0,060;
20190809_161814;-0,745;-0,053;3,084;0,218;0,137;-0,038;
20190809_161814;3,031;-7,022;23,322;0,204;-0,190;-0,144;
20190809_161814;-4,858;-6,840;17,961;0,730;1,038;-0,419;
20190809_161814;2,861;-6,879;25,503;2,025;0,649;-0,151;
20190809_161815;-2,837;1,044;-0,539;0,065;0,243;0,009;
20190809_161815;0,192;1,638;0,357;0,080;0,458;0,194;
20190809_161815;-1,369;-3,266;13,070;0,183;0,248;0,138;
20190809_161815;-0,172;-1,027;2,246;0,044;0,433;0,117;
20190809_161815;-0,448;-3,730;11,078;-0,007;0,310;-0,056;
20190809_161815;-2,507;-5,001;9,227;0,233;0,204;0,005;
20190809_161815;-1,508;-5,737;19,987;0,200;0,566;-0,097;
20190809_161815;0,366;-5,768;19,290;1,214;0,005;-0,199;
20190809_161815;-1,226;-4,061;10,585;-0,141;-0,288;-0,193;
20190809_161816;-0,781;-3,414;13,494;0,060;-0,141;-0,006;
20190809_161816;0,792;-5,842;17,312;-0,037;-0,320;-0,115;
20190809_161816;-2,052;-2,600;6,998;-0,170;-0,489;-0,068;
20190809_161816;-2,315;-2,023;5,595;0,109;0,395;0,188;
20190809_161816;-2,234;-8,408;24,816;0,463;0,561;0,079;
20190809_161816;0,256;-4,829;16,723;0,169;0,700;0,029;
20190809_161816;-0,651;-1,156;6,991;-0,215;-0,327;-0,141;
20190809_161816;-0,977;-3,100;9,852;0,017;0,012;-0,050;
20190809_161816;-0,443;-2,784;9,926;0,024;-0,027;-0,114;
20190809_161817;-1,518;-3,357;13,314;0,259;0,039;-0,122;
20190809_161817;-0,630;-2,677;6,711;0,009;0,089;-0,064;
20190809_161817;-0,160;-2,325;8,073;0,057;-0,001;0,009;
20190809_161817;-0,132;-3,426;11,808;0,272;-0,410;-0,185;
20190809_161817;-0,543;-5,830;15,974;0,064;-0,270;-0,084;
20190809_161817;-1,482;-3,687;11,164;0,032;0,139;0,087;
20190809_161817;-0,388;-2,811;9,735;-0,148;-0,069;-0,004;
20190809_161817;0,429;-3,474;12,167;-0,116;-0,128;-0,006;
20190809_161817;-0,244;-2,631;12,471;-0,008;-0,031;-0,144;
20190809_161818;0,603;-2,425;2,564;-0,079;0,152;-0,102;
20190809_161818;-2,892;-2,186;10,525;-0,049;-0,037;-0,195;
20190809_161818;-2,521;-2,009;5,248;-0,130;0,570;0,093;
20190809_161818;-1,585;0,134;4,827;-0,078;0,117;0,007;
20190809_161818;-2,507;-2,207;5,895;-0,109;0,294;-0,034;
20190809_161818;-1,942;1,082;2,729;-0,051;0,378;-0,014;
20190809_161818;-3,754;-0,096;7,999;0,343;0,933;0,039;
20190809_161818;-1,484;-3,982;11,176;0,224;0,101;-0,185;
20190809_161818;-1,355;-3,323;9,208;0,043;0,166;-0,163;
20190809_161818;-2,272;-1,245;10,484;-0,060;-0,604;-0,166;
20190809_161819;-1,006;-3,857;16,714;0,077;0,023;-0,059;
20190809_161819;-0,235;-1,741;9,177;-0,551;-1,293;-0,314;
20190809_161819;-1,958;-2,215;8,887;-0,074;-0,378;-0,083;
20190809_161819;-2,164;-1,116;10,341;0,033;-0,328;-0,215;
20190809_161819;0,124;0,215;-0,522;0,096;0,373;0,071;
20190809_161819;-1,652;-0,297;3,208;0,352;0,516;-0,079;
20190809_161819;-4,638;-3,249;5,193;0,340;0,718;-0,238;
20190809_161819;-0,639;-2,626;12,359;0,061;-0,097;-0,121;
20190809_161819;-1,918;-1,161;3,950;-0,001;0,321;-0,021;
20190809_161820;-0,828;-2,423;11,665;0,074;0,027;-0,016;
20190809_161820;-0,577;-3,828;12,567;-0,040;-0,178;-0,129;
20190809_161820;2,351;-6,345;18,787;0,052;-0,575;-0,261;
20190809_161820;-0,716;-14,303;34,230;-1,138;-3,283;-0,707;
20190809_161820;-1,506;-0,522;10,745;2,041;2,199;0,486;
20190809_161820;1,501;-3,649;2,641;0,516;-0,202;0,043;
20190809_161820;2,454;-9,131;30,828;-0,191;-0,514;-0,167;
20190809_161820;-3,237;-3,227;21,505;0,393;0,132;0,054;
20190809_161820;6,663;-3,373;17,571;-0,161;-1,671;0,419;
20190809_161820;1,245;-1,932;10,958;-0,008;0,300;-0,022;
20190809_161821;-3,874;0,232;-0,014;-0,007;0,892;-0,328;
20190809_161821;-0,953;1,741;1,946;-0,399;-0,450;-0,537;
20190809_161821;-3,582;-3,519;6,606;0,396;0,898;0,005;
20190809_161821;-3,563;-2,796;17,554;-0,384;0,405;0,252;
20190809_161821;-0,441;-2,227;3,876;-0,192;0,676;0,047;
20190809_161821;-2,899;0,340;0,060;-0,380;0,225;0,062;
20190809_161821;1,623;-4,681;19,328;0,262;-0,511;-0,220;
20190809_161821;-0,340;-1,293;12,627;1,385;-1,077;-0,264;
20190809_161821;-2,437;-2,514;9,905;0,913;-0,688;-0,103;
20190809_161822;0,412;-5,042;10,982;0,600;0,480;-0,272;
20190809_161822;-2,033;0,256;0,180;0,371;0,900;-0,041;
20190809_161822;2,303;-12,737;21,701;0,303;-1,595;0,215;
20190809_161822;2,303;0,747;2,607;-0,119;0,734;0,128;
20190809_161822;-2,480;-4,872;12,266;0,036;1,351;0,208;
20190809_161822;0,290;-4,697;14,336;0,051;-0,458;-0,195;
20190809_161822;2,617;-4,099;11,856;0,058;0,112;0,022;
20190809_161822;2,780;-6,661;14,892;0,057;0,439;-0,038;
20190809_161822;-0,362;-0,845;5,605;-0,327;-0,113;-0,105;
20190809_161823;0,168;0,505;1,609;-0,192;-0,619;-0,181;
20190809_161823;-1,341;-2,152;8,966;0,196;-0,149;-0,118;
20190809_161823;-1,003;-3,395;13,187;0,085;-0,217;-0,058;
20190809_161823;0,438;-3,321;10,326;0,069;-0,267;-0,032;
20190809_161823;-0,074;-0,213;1,681;-0,012;0,071;0,039;
20190809_161823;0,333;0,055;2,624;-0,358;-0,674;-0,002;
20190809_161823;-2,399;0,419;6,527;-0,250;-0,426;-0,102;
20190809_161823;-1,257;2,351;2,334;-0,270;0,246;-0,096;
20190809_161823;1,678;-7,597;17,636;0,045;0,332;-0,195;
20190809_161823;-1,283;-5,418;11,322;0,107;0,680;0,039;
20190809_161824;-0,828;0,582;5,246;-0,106;-0,516;0,042;
20190809_161824;6,263;-5,037;17,116;0,215;-0,307;-0,122;
20190809_161824;-0,381;-0,766;-0,766;0,398;1,062;0,076;
20190809_161824;1,338;-5,143;12,086;-0,479;-1,307;-0,504;
20190809_161824;1,032;-6,618;22,395;0,392;0,561;0,162;
20190809_161824;0,048;1,803;-2,428;0,356;-0,571;0,378;
20190809_161824;-0,237;0,898;0,215;-0,379;0,866;0,045;
20190809_161824;-0,043;0,510;3,792;-0,530;-0,866;-0,197;
20190809_161824;-0,244;-2,102;10,072;0,608;-0,182;0,073;
20190809_161825;0,613;-7,896;18,981;0,697;0,023;-0,125;
20190809_161825;2,708;-2,878;11,985;0,010;-0,063;-0,030;
20190809_161825;-1,164;-2,018;5,148;0,152;0,516;-0,030;
20190809_161825;0,627;-3,658;12,354;0,077;-0,305;-0,065;
20190809_161825;-0,074;0,855;1,051;0,257;-1,748;-0,251;
20190809_161825;0,194;-1,046;3,831;-0,968;-0,307;-0,238;
20190809_161825;-2,998;-3,306;11,870;0,091;0,440;0,221;
20190809_161825;-0,148;-3,895;12,412;0,060;-0,308;0,033;
20190809_161825;0,527;-3,654;8,691;-0,007;0,202;-0,017;
20190809_161825;-1,027;0,716;5,030;-0,110;-0,424;-0,140;
20190809_161826;0,917;-3,457;11,059;0,120;0,081;-0,125;
20190809_161826;-1,583;-6,998;9,036;-0,050;0,349;-0,125;
20190809_161826;-0,857;0,443;8,413;0,178;-1,112;-0,088;
20190809_161826;0,685;-4,128;12,031;0,182;0,099;0,065;
20190809_161826;2,102;-7,259;15,613;-0,446;-0,435;0,050;
20190809_161826;-2,528;0,366;3,081;0,144;0,649;0,059;
20190809_161826;-0,433;-1,678;3,488;-0,051;-0,335;-0,006;
20190809_161826;0,084;-3,699;9,395;0,049;0,013;0,116;
20190809_161826;-0,795;-0,718;5,629;0,044;-1,151;0,001;
20190809_161827;-0,160;-2,727;8,543;0,087;0,112;0,176;
20190809_161827;0,014;-3,218;7,506;0,014;0,125;0,127;
20190809_161827;0,661;-2,227;9,948;-0,027;-0,521;-0,021;
20190809_161827;-1,824;-3,232;12,227;0,325;0,563;0,289;
20190809_161827;0,685;-3,065;10,563;-0,154;-0,875;0,079;
20190809_161827;0,747;-4,362;15,490;0,173;-0,113;0,273;
20190809_161827;0,812;-4,293;13,329;0,020;0,293;0,268;
20190809_161827;2,176;-2,686;16,309;-0,364;-1,439;-0,010;
20190809_161827;2,859;-3,414;19,182;-0,841;0,261;0,365;
20190809_161827;-1,472;-0,565;1,968;-0,202;0,493;0,207;
20190809_161828;2,478;-6,146;12,589;-0,814;-1,019;-0,282;
20190809_161828;-1,307;-6,986;14,262;0,091;1,234;0,276;
20190809_161828;-1,113;-3,915;15,227;0,152;-0,020;0,112;
20190809_161828;1,788;-2,452;10,046;-0,422;-0,598;0,344;
20190809_161828;-1,025;0,816;0,455;-0,578;-0,145;0,236;
20190809_161828;0,862;-6,294;10,755;0,534;0,589;0,288;
20190809_161828;-0,043;-2,382;7,130;-0,039;-0,193;0,027;
20190809_161828;0,527;-3,610;8,554;0,044;0,366;0,189;
20190809_161828;0,371;-1,731;7,503;-0,043;-0,232;0,028;
20190809_161829;-0,778;-1,518;3,017;-0,380;0,045;0,042;
20190809_161829;-0,122;-0,211;3,733;-0,323;-0,651;-0,067;
20190809_161829;0,649;1,295;3,156;-0,143;-0,854;-0,202;
20190809_161829;0,053;1,085;1,472;-0,041;0,269;0,125;
20190809_161829;-0,508;-6,254;9,862;0,291;0,504;0,205;
20190809_161829;-1,413;-9,333;18,220;1,298;0,009;-0,009;
20190809_161829;1,599;-4,183;8,384;-0,491;0,062;0,199;
20190809_161829;-0,189;-1,683;9,342;-0,175;-0,186;0,268;
20190809_161829;1,053;-1,180;10,226;0,065;-0,206;0,062;
20190809_161829;0,553;-2,394;7,161;-0,116;0,385;0,016;
20190809_161830;-0,376;-2,373;3,833;0,049;0,525;-0,047;
20190809_161830;2,612;-8,842;20,899;0,507;0,470;0,045;
20190809_161830;3,053;-6,986;18,383;0,671;0,507;0,205;
20190809_161830;2,588;-4,535;14,636;0,388;0,605;0,161;
20190809_161830;3,519;-3,768;12,598;0,714;0,381;0,207;
20190809_161830;0,836;-3,156;8,363;-0,007;0,599;0,033;
20190809_161830;3,184;-4,283;12,084;0,104;-0,022;-0,153;
20190809_161830;0,376;-1,343;5,854;-0,102;-0,189;-0,242;
20190809_161830;2,761;-6,223;16,611;-0,055;-0,147;-0,325;
20190809_161831;0,840;-5,349;10,324;0,369;-0,054;-0,238;
20190809_161831;-0,876;-2,890;7,199;0,194;-0,044;0,052;
20190809_161831;-0,867;-6,227;17,418;-0,025;0,389;0,295;
20190809_161831;6,596;-6,397;21,826;0,257;-0,344;-0,022;
20190809_161831;0,278;-0,311;5,368;-0,273;-0,247;-0,039;
20190809_161831;-1,853;-4,235;9,177;-0,034;0,861;0,169;
20190809_161831;3,223;-2,150;9,402;-0,063;-0,963;-0,097;
20190809_161831;-0,797;-0,378;5,763;-0,017;0,376;0,026;
20190809_161831;-1,369;-3,565;9,452;0,024;0,088;0,000;
20190809_161831;1,563;-4,353;11,353;0,024;-0,063;0,026;
20190809_161832;0,462;-4,180;13,769;0,247;0,460;0,168;
20190809_161832;1,013;-3,096;8,619;-0,133;-0,042;0,031;
20190809_161832;-0,709;-3,991;10,843;-0,378;0,006;0,015;
20190809_161832;-0,141;-2,421;8,516;0,010;0,261;0,235;
20190809_161832;1,640;-3,129;10,453;-0,051;-0,109;0,072;
20190809_161832;1,070;-2,172;8,569;-0,015;-0,147;-0,048;
20190809_161832;0,634;-4,262;10,281;0,021;0,030;-0,010;
20190809_161832;-0,414;-2,535;8,404;-0,012;-0,011;0,042;
20190809_161832;0,505;-4,278;10,175;-0,135;0,130;0,099;
20190809_161833;0,881;-2,600;9,495;-0,034;-0,043;0,084;
20190809_161833;0,903;-2,744;9,215;-0,080;0,021;0,031;
20190809_161833;0,622;-2,239;9,249;-0,092;0,109;-0,018;
20190809_161833;0,637;-2,952;9,768;0,009;0,157;-0,130;
20190809_161833;0,194;-2,231;7,089;-0,012;0,025;-0,221;
20190809_161833;-0,235;-3,302;9,297;0,055;0,116;-0,174;
20190809_161833;-0,220;-2,614;8,147;0,030;0,084;-0,103;
20190809_161833;-0,086;-2,133;7,058;0,003;-0,063;-0,118;
20190809_161833;-0,409;-3,103;9,675;0,113;-0,070;-0,113;
20190809_161833;0,079;-4,120;10,116;0,126;-0,280;-0,128;
20190809_161834;-0,409;-2,653;6,632;-0,051;-0,316;-0,013;
20190809_161834;-0,666;-4,216;14,767;-0,274;0,870;0,312;
20190809_161834;-0,393;-2,519;5,593;-0,215;-0,009;0,177;
20190809_161834;-0,419;-2,480;9,254;-0,014;0,124;0,215;
20190809_161834;0,220;-4,911;10,647;-0,103;0,254;0,165;
20190809_161834;0,163;-3,098;8,406;-0,074;-0,188;0,027;
20190809_161834;-1,238;-2,279;8,854;-0,040;-0,307;0,050;
20190809_161834;0,702;-3,836;9,421;-0,044;-0,196;0,085;
20190809_161834;0,316;-3,021;8,679;-0,040;-0,170;0,138;
20190809_161835;-0,673;-1,923;8,461;-0,049;-0,051;0,152;
20190809_161835;0,266;-4,609;11,475;-0,017;0,095;0,174;
20190809_161835;0,077;-4,992;15,215;0,282;0,332;0,158;
20190809_161835;-0,618;-2,883;9,311;0,224;0,332;0,165;
20190809_161835;-0,414;-3,323;10,453;0,131;0,056;0,128;
20190809_161835;-1,302;-1,216;7,812;0,078;-0,151;0,110;
20190809_161835;-0,134;-2,097;9,893;-0,074;-0,371;0,060;
20190809_161835;-0,373;-2,387;10,125;0,033;-0,136;0,093;
20190809_161835;-0,464;-2,085;8,808;-0,004;-0,188;0,045;
20190809_161836;-0,309;-2,538;9,402;0,058;-0,151;0,014;
20190809_161836;-0,867;-2,825;9,261;0,116;-0,528;0,014;
20190809_161836;-0,007;-1,932;7,367;-0,090;-0,354;0,156;
20190809_161836;-1,489;-3,182;9,376;0,013;0,215;0,308;
20190809_161836;-0,555;-1,611;4,472;-0,286;-0,701;0,157;
20190809_161836;-0,876;-3,019;6,201;-0,108;0,291;0,401;
20190809_161836;0,500;-2,406;10,726;-0,033;-0,377;0,250;
20190809_161836;1,049;-5,042;14,720;-0,013;-0,116;0,238;
20190809_161836;0,134;-3,170;10,872;0,150;0,598;0,370;
20190809_161836;-0,204;-1,135;6,381;-0,104;0,186;0,301;
20190809_161837;0,654;-3,529;10,795;0,011;-0,050;0,175;
20190809_161837;1,041;-3,065;10,360;-0,043;-0,119;0,044;
20190809_161837;-0,180;-3,096;9,103;-0,055;-0,057;0,042;
20190809_161837;0,002;-1,769;8,188;0,037;-0,158;-0,011;
20190809_161837;0,227;-2,531;7,254;0,036;-0,223;-0,044;
20190809_161837;0,646;-3,572;10,005;0,085;-0,063;0,087;
20190809_161837;0,074;-3,759;10,034;0,055;-0,061;0,160;
20190809_161837;0,266;-3,196;8,243;0,318;-0,007;0,248;
20190809_161837;-0,555;-3,900;10,209;0,046;-0,039;0,293;
20190809_161838;1,353;-3,773;11,602;0,127;-0,250;0,313;
20190809_161838;0,007;-2,672;8,188;0,010;-0,141;0,355;
20190809_161838;0,024;-3,010;8,452;-0,040;-0,042;0,450;
20190809_161838;1,087;-2,739;7,762;-0,095;-0,083;0,460;
20190809_161838;0,572;-3,254;9,718;0,038;-0,018;0,450;
20190809_161838;-0,211;-2,859;9,158;-0,054;-0,034;0,406;
20190809_161838;1,281;-4,326;10,968;0,004;-0,293;0,404;
20190809_161838;-0,223;-2,377;8,159;-0,062;-0,224;0,469;
20190809_161838;0,951;-2,172;7,506;-0,114;-0,301;0,467;
20190809_161838;0,524;-2,284;9,160;-0,115;-0,204;0,420;
20190809_161839;0,812;-4,025;11,447;-0,123;0,009;0,432;
20190809_161839;0,551;-2,205;10,642;-0,037;-0,003;0,369;
20190809_161839;0,776;-1,786;6,175;-0,126;0,268;0,308;
20190809_161839;0,888;-2,856;9,503;-0,073;-0,043;0,152;
20190809_161839;-1,056;-3,587;9,981;-0,018;-0,104;0,215;
20190809_161839;-0,850;-2,840;8,770;-0,045;-0,006;0,231;
20190809_161839;1,757;-4,118;13,508;-0,028;-0,467;0,107;
20190809_161839;1,396;-0,974;6,280;-0,072;0,061;0,132;
20190809_161839;0,520;-2,593;6,694;-0,177;-0,317;-0,081;
20190809_161840;-0,290;-2,023;7,525;0,120;0,382;0,044;
20190809_161840;2,679;-4,594;12,266;-0,187;-0,181;-0,163;
20190809_161840;-0,589;-2,854;7,901;-0,032;0,107;-0,092;
20190809_161840;-0,807;-1,877;7,867;-0,037;0,276;-0,016;
20190809_161840;-1,314;-2,337;7,784;-0,047;0,497;0,078;
20190809_161840;-3,299;-3,440;9,637;-0,011;0,439;0,080;
20190809_161840;-0,668;-2,392;9,862;-0,069;-0,260;-0,006;
20190809_161840;-0,326;-1,539;10,637;0,130;0,244;0,189;
20190809_161840;-1,717;-1,688;8,933;0,009;0,531;0,159;
20190809_161840;-1,341;-0,558;6,486;-0,384;-0,412;0,030;
20190809_161841;0,062;-7,092;11,100;-0,687;-0,057;-0,007;
20190809_161841;-1,355;-8,231;12,153;-0,172;0,669;0,096;
20190809_161841;-0,294;-6,555;10,934;0,073;0,108;-0,072;
20190809_161841;-0,845;-3,768;10,997;0,372;-0,164;-0,114;
20190809_161841;-0,498;-4,671;8,863;0,398;0,290;-0,074;
20190809_161841;-1,094;-4,310;7,056;0,259;-0,040;-0,186;
20190809_161841;-1,458;-4,544;7,448;0,444;0,070;-0,114;
20190809_161841;-0,860;-2,337;8,162;0,534;-0,092;-0,155;
20190809_161841;0,146;-2,164;9,038;0,380;-0,421;-0,219;
20190809_161842;0,828;-1,068;9,246;0,348;-0,365;-0,077;
20190809_161842;0,467;-1,671;9,246;0,209;-0,193;0,048;
20190809_161842;-0,409;-1,334;10,293;0,129;-0,147;0,093;
20190809_161842;-0,067;-1,372;12,433;0,093;-0,254;0,073;
20190809_161842;-0,757;1,156;9,311;-0,085;-0,340;0,125;
20190809_161842;-0,922;-0,991;7,465;-0,139;0,110;0,201;
20190809_161842;0,055;-1,712;9,826;-0,139;-0,294;0,091;
20190809_161842;-0,196;0,000;9,857;-0,072;-0,204;0,111;
20190809_161842;0,160;-1,439;9,723;-0,045;0,048;0,131;
20190809_161842;0,553;-2,016;10,760;-0,165;-0,116;0,076;
20190809_161843;0,405;-1,599;9,098;-0,149;-0,193;0,107;
20190809_161843;-0,050;-2,863;8,954;-0,018;0,066;0,139;
20190809_161843;-0,570;-1,946;9,064;0,051;0,016;0,163;
20190809_161843;-0,414;-1,216;9,632;0,071;-0,048;0,160;
20190809_161843;0,376;-1,393;9,871;0,018;-0,169;0,125;
20190809_161843;0,306;-0,441;8,820;0,067;-0,184;0,133;
20190809_161843;-0,311;-1,456;9,907;0,101;-0,086;0,092;
20190809_161843;-0,251;-0,706;9,646;0,047;-0,119;0,113;
20190809_161843;-0,029;-0,378;9,675;-0,036;-0,160;0,134;
20190809_161844;-0,266;-1,027;9,301;-0,041;0,315;0,244;
20190809_161844;0,632;-1,065;10,508;0,041;0,115;0,209;
20190809_161844;0,395;-0,888;9,685;-0,077;0,199;0,214;
20190809_161844;-0,776;-2,871;9,720;-0,136;0,372;0,235;
20190809_161844;-0,352;-3,891;11,669;-0,001;0,182;0,219;
20190809_161844;-0,464;-1,537;8,566;-0,016;0,064;0,285;
20190809_161844;-0,350;-2,988;11,540;0,070;0,145;0,289;
20190809_161844;0,180;-3,177;13,575;0,118;-0,063;0,241;
20190809_161844;-0,069;-1,109;9,263;0,097;-0,080;0,225;
20190809_161845;-0,036;-1,257;8,023;-0,063;-0,381;0,123;
20190809_161845;1,020;-1,120;9,412;0,016;-0,199;0,145;
20190809_161845;-0,555;-0,318;4,685;-0,134;-0,438;0,114;
20190809_161845;0,141;-0,522;7,458;-0,180;-0,324;0,103;
20190809_161845;0,481;-1,135;6,812;-0,071;-0,100;0,195;
20190809_161845;0,809;-1,324;7,331;-0,065;-0,113;0,164;
20190809_161845;0,129;-2,473;11,885;0,146;0,245;0,277;
20190809_161845;0,405;-2,107;9,919;0,102;0,059;0,208;
20190809_161845;0,941;-1,994;9,682;0,016;-0,117;0,187;
20190809_161846;0,577;-1,714;9,043;0,020;0,025;0,251;
20190809_161846;1,501;-0,814;9,720;-0,082;-0,335;0,136;
20190809_161846;1,176;-0,316;8,071;-0,116;-0,091;0,250;
20190809_161846;0,141;0,400;5,895;-0,088;0,175;0,207;
20190809_161846;0,093;-2,538;11,349;-0,122;-0,072;0,125;
20190809_161846;0,060;-2,184;11,777;-0,047;0,033;0,206;
20190809_161846;-0,029;-1,556;8,219;-0,014;-0,097;0,150;
20190809_161846;0,414;-1,652;10,362;-0,147;-0,152;0,109;
20190809_161846;0,326;-2,591;12,136;0,131;0,162;0,131;
20190809_161846;0,457;-1,554;9,850;0,090;-0,009;-0,025;
20190809_161847;0,508;-3,084;11,042;-0,044;0,368;0,043;
20190809_161847;1,336;-1,709;8,614;0,129;0,060;-0,035;
20190809_161847;0,965;-1,472;8,387;-0,049;-0,223;-0,123;
20190809_161847;1,592;-0,697;7,037;-0,063;-0,227;-0,107;
20190809_161847;0,563;-2,483;5,260;-0,060;0,197;-0,059;
20190809_161847;0,405;-1,645;5,157;-0,270;-0,099;-0,097;
20190809_161847;0,359;-1,446;5,705;-0,093;0,050;0,007;
20190809_161847;0,438;0,407;5,504;-0,031;-0,366;-0,076;
20190809_161847;-0,510;0,759;3,721;-0,106;0,196;0,035;
20190809_161848;0,297;-0,809;1,585;-0,671;0,322;-0,058;
20190809_161848;2,160;-2,198;7,755;0,389;0,378;0,061;
20190809_161848;2,124;-2,840;12,871;0,195;0,720;0,097;
20190809_161848;3,091;-2,028;9,919;-0,072;0,062;-0,007;
20190809_161848;2,701;-0,673;7,111;-0,485;-0,240;-0,199;
20190809_161848;1,968;-0,836;7,230;0,042;-0,001;-0,196;
20190809_161848;0,053;-1,724;9,699;0,146;0,186;-0,103;
20190809_161848;-1,453;-1,860;8,739;0,022;-0,329;-0,170;
20190809_161848;-0,848;-0,704;7,642;0,255;-0,043;-0,171;
20190809_161848;-0,292;0,134;6,165;-0,191;-0,378;-0,261;
20190809_161849;0,900;-0,534;8,466;-0,022;-0,109;-0,137;
20190809_161849;0,232;-2,782;9,960;-0,185;-0,079;-0,146;
20190809_161849;0,867;-3,239;10,647;0,083;0,228;-0,052;
20190809_161849;1,650;-1,262;8,420;0,005;-0,190;-0,064;
20190809_161849;1,805;-0,323;10,336;0,082;-0,265;-0,053;
20190809_161849;2,121;-2,310;13,226;0,032;-0,066;-0,020;
20190809_161849;0,292;-0,283;8,724;0,160;-0,098;-0,060;
20190809_161849;0,917;1,405;5,013;-0,030;-0,548;-0,041;
20190809_161849;-1,018;0,002;7,836;-0,250;0,166;-0,076;
20190809_161850;-0,153;-0,165;5,732;-0,057;0,315;-0,033;
20190809_161850;0,476;-1,939;8,741;-0,260;-0,386;-0,137;
20190809_161850;0,005;-2,191;10,499;-0,002;-0,091;-0,027;
20190809_161850;-0,223;-4,606;13,156;-0,046;0,465;0,085;
20190809_161850;0,735;-2,820;9,541;0,017;0,475;0,232;
20190809_161850;0,931;-1,906;10,130;-0,040;0,175;0,091;
20190809_161850;0,991;-2,011;10,106;-0,054;-0,008;-0,001;
20190809_161850;0,608;-2,919;11,844;0,045;0,095;-0,017;
20190809_161850;0,759;-1,829;12,368;0,245;0,129;-0,038;
20190809_161851;0,206;0,345;4,597;-0,242;-0,152;-0,169;
20190809_161851;0,994;-4,180;17,389;0,596;0,794;-0,086;
20190809_161851;2,236;-4,386;15,536;-0,446;-0,468;-0,223;
20190809_161851;2,076;-3,215;11,236;0,019;-0,123;-0,162;
20190809_161851;-0,536;-0,187;5,995;-0,088;-0,156;-0,216;
20190809_161851;0,304;-1,125;6,342;-0,085;-0,209;-0,174;
20190809_161851;-0,005;-0,261;8,985;0,109;-0,114;-0,059;
20190809_161851;-0,639;-0,948;7,954;0,115;0,135;-0,093;
20190809_161851;0,711;-2,267;10,372;0,051;0,188;-0,020;
20190809_161851;0,220;-1,391;8,262;0,046;0,108;-0,027;
20190809_161852;0,426;-2,583;10,980;0,016;-0,142;-0,097;
20190809_161852;2,902;-1,147;10,436;-0,326;-0,452;-0,013;
20190809_161852;1,800;-3,218;11,246;-0,150;-0,006;0,203;
20190809_161852;0,761;-6,084;12,234;0,001;0,198;0,239;
20190809_161852;-0,098;-0,048;6,009;-0,194;0,043;0,219;
20190809_161852;0,215;1,235;6,000;-0,527;-0,417;0,072;
20190809_161852;-0,122;-2,928;9,052;-0,099;0,182;0,008;
20190809_161852;-0,371;-2,270;7,721;0,147;0,065;-0,151;
20190809_161852;-1,164;-1,590;7,748;0,372;0,439;-0,126;
20190809_161853;-0,187;-1,492;7,628;0,291;0,226;-0,145;
20190809_161853;-0,723;-0,651;8,423;0,064;0,245;-0,068;
20190809_161853;0,577;-2,581;10,345;-0,053;-0,038;-0,050;
20190809_161853;-0,292;-3,213;9,199;-0,074;-0,002;0,081;
20190809_161853;-0,596;-3,412;6,835;-0,240;-0,168;0,170;
20190809_161853;-0,962;-3,991;10,831;-0,223;0,049;0,260;
20190809_161853;0,385;-2,725;8,696;-0,035;-0,063;0,275;
20190809_161853;1,757;-3,680;12,601;-0,093;-0,097;0,220;
20190809_161853;1,975;-4,760;13,795;0,084;-0,493;0,096;
20190809_161853;0,441;-1,992;9,493;0,021;-0,103;0,027;
20190809_161854;1,243;-2,042;9,718;0,052;0,075;0,050;
20190809_161854;-0,824;-0,443;4,776;-0,236;-0,423;-0,172;
20190809_161854;0,371;-1,271;6,096;-0,199;-0,337;-0,184;
20190809_161854;1,044;0,654;5,631;-0,148;-0,427;-0,088;
20190809_161854;-1,662;-0,452;5,578;-0,103;0,225;0,054;
20190809_161854;-0,383;-4,343;10,618;0,027;0,351;0,236;
20190809_161854;2,497;-7,367;19,036;0,160;0,185;0,141;
20190809_161854;0,867;-5,511;15,282;0,167;-0,123;0,232;
20190809_161854;1,542;-0,685;7,190;-0,600;-0,588;0,044;
20190809_161855;-0,165;-0,541;0,215;-0,517;-0,247;-0,062;
20190809_161855;-0,773;0,180;5,234;0,569;0,450;0,081;
20190809_161855;1,405;-0,546;6,048;0,657;0,174;-0,232;
20190809_161855;1,116;-0,850;8,533;0,248;-0,096;-0,211;
20190809_161855;1,573;-1,489;10,326;-0,038;-0,004;-0,129;
20190809_161855;0,271;-0,781;7,460;-0,072;0,064;0,045;
20190809_161855;-1,180;-1,101;2,600;-0,404;0,473;0,274;
20190809_161855;-1,671;-0,445;4,137;-0,306;0,762;0,415;
20190809_161855;-0,682;-1,415;5,732;-0,376;0,270;0,181;
20190809_161855;-0,639;-4,044;9,713;0,118;0,366;0,114;
20190809_161856;2,286;-4,492;15,847;0,490;-0,104;-0,054;
20190809_161856;1,975;-7,896;22,534;0,822;0,185;-0,360;
20190809_161856;-1,219;-0,314;10,862;0,673;-0,445;-0,398;
20190809_161856;-0,821;-3,646;10,108;0,260;0,153;-0,358;
20190809_161856;6,601;-8,543;31,498;1,417;-0,017;-0,472;
20190809_161856;-1,298;-0,601;4,851;1,820;0,784;0,243;
20190809_161856;-0,948;-5,519;10,156;-1,757;-0,390;-0,234;
20190809_161856;0,838;-1,889;11,372;0,256;-0,115;-0,146;
20190809_161856;-0,589;-1,714;9,115;0,363;0,162;-0,074;
20190809_161856;2,224;-1,561;8,583;-0,339;0,064;-0,263;
20190809_161857;3,146;-1,753;5,966;1,421;-0,434;-0,421;
20190809_161857;0,448;-3,393;4,985;0,720;0,272;-0,336;
20190809_161857;1,963;0,702;4,544;0,047;-0,612;-0,293;
20190809_161857;-2,904;-3,314;8,452;-0,835;1,140;-0,249;
20190809_161857;1,338;4,202;7,010;1,597;1,625;-0,832;
20190809_161857;-0,091;-0,697;-0,970;1,600;0,097;0,309;
20190809_161857;1,329;-2,761;17,581;0,427;-0,362;-0,051;
20190809_161857;-3,093;-3,242;6,448;1,986;0,815;-0,186;
20190809_161857;-2,990;-2,612;5,667;1,501;0,625;-0,013;
20190809_161858;0,134;-0,089;7,594;1,031;0,435;0,038;
20190809_161858;0,043;0,115;4,769;-0,491;-0,186;-0,031;
20190809_161858;-2,263;-3,347;14,693;-1,074;-0,155;0,049;
20190809_161858;0,139;-4,360;16,032;-0,228;-0,115;0,061;
20190809_161858;-3,280;-4,992;13,137;1,906;0,566;-0,081;
20190809_161858;3,891;-1,214;20,351;1,875;0,108;0,425;
20190809_161858;-3,766;-4,513;11,150;1,809;0,923;0,617;
20190809_161858;-0,160;-2,830;7,221;1,170;0,288;0,227;
20190809_161858;1,422;1,530;3,730;0,857;0,010;0,140;
20190809_161858;4,535;0,086;13,087;-0,160;-0,956;-0,089;
20190809_161859;-1,245;-2,361;10,463;1,163;0,927;0,173;
20190809_161859;-1,666;-3,721;10,781;0,642;0,709;-0,042;
20190809_161859;-1,034;-1,164;8,765;0,564;0,839;0,149;
20190809_161859;-1,894;-1,259;6,649;0,729;0,573;0,018;
20190809_161859;-0,491;-7,590;22,082;0,390;0,678;0,416;
20190809_161859;1,585;2,224;1,240;1,883;0,385;0,097;
20190809_161859;0,019;1,690;5,420;2,146;0,838;-0,141;
20190809_161859;4,187;5,634;5,612;1,444;0,185;0,007;
20190809_161859;2,806;0,146;10,925;0,381;-0,215;-0,052;
20190809_161900;0,826;-2,040;9,297;0,546;-0,082;-0,058;
20190809_161900;-1,343;-0,189;0,230;1,371;0,770;0,024;
20190809_161900;-5,236;1,283;0,045;1,265;0,328;0,204;
20190809_161900;-4,714;2,844;1,738;-0,071;0,794;0,401;
20190809_161900;-4,482;-5,959;12,507;-1,974;-0,170;0,427;
20190809_161900;-4,463;-2,741;0,278;1,548;0,537;0,139;
20190809_161900;-4,300;1,860;1,925;1,365;0,449;0,113;
20190809_161900;-3,086;1,458;-1,343;2,053;1,161;1,050;
20190809_161900;0,572;-0,072;8,614;0,240;-0,082;0,007;
20190809_161900;0,103;1,137;10,496;-1,204;-0,291;0,194;
20190809_161901;-6,438;-2,198;5,037;-1,402;0,154;0,199;
20190809_161901;-2,169;-2,904;8,473;-1,365;0,168;0,288;
20190809_161901;2,377;3,290;11,064;-0,764;-0,368;-0,243;
20190809_161901;1,314;3,014;4,781;-1,101;-0,936;0,081;
20190809_161901;0,402;-0,010;-0,110;1,110;0,390;-0,069;
20190809_161901;3,587;-2,674;14,844;-1,699;-0,837;-0,077;
20190809_161901;2,902;-0,977;14,949;-0,057;-0,786;-0,093;
20190809_161901;0,081;-2,856;11,653;0,653;0,840;0,008;
20190809_161901;0,931;-0,201;8,121;-0,012;-0,164;-0,148;
20190809_161902;-2,930;-2,179;6,491;0,505;-0,063;0,016;
20190809_161902;-2,325;-1,448;3,800;0,165;0,253;-0,010;
20190809_161902;-2,466;0,268;5,691;0,371;0,307;0,049;
20190809_161902;0,591;-1,808;18,174;-0,623;-0,026;0,044;
20190809_161902;3,749;-4,120;19,371;-1,023;-0,520;-0,097;
20190809_161902;1,676;-4,207;19,324;1,959;0,218;-0,155;
20190809_161902;0,436;-4,544;11,976;2,150;0,480;0,130;
20190809_161902;0,948;-1,812;10,894;-0,193;0,073;0,087;
20190809_161902;1,750;-2,998;20,760;-3,112;-0,896;-0,284;
