Timestamp;Accel_x;Accel_y;Accel_z;Gyro_x;Gyro_y;Gyro_z;
20190809_155001;1,745;6,208;7,219;0,057;0,003;-0,023;
20190809_155001;1,712;6,325;7,116;0,003;0,012;-0,011;
20190809_155001;2,258;6,503;6,840;-0,003;0,015;-0,035;
20190809_155001;2,009;6,510;7,063;0,003;0,044;-0,068;
20190809_155001;1,302;6,385;7,053;0,003;0,100;-0,093;
20190809_155001;1,657;6,584;6,910;-0,041;0,139;-0,058;
20190809_155001;0,697;6,500;6,680;-0,010;0,127;-0,055;
20190809_155001;1,482;6,268;6,258;0,011;0,129;-0,058;
20190809_155001;0,551;6,931;6,718;0,060;0,160;-0,104;
20190809_155002;-0,122;6,512;6,407;0,112;0,222;-0,183;
20190809_155002;-0,278;7,365;8,466;-0,069;0,161;-0,060;
20190809_155002;0,168;7,446;6,732;0,027;0,120;-0,146;
20190809_155002;0,644;7,894;3,661;0,000;0,063;-0,076;
20190809_155002;0,316;8,238;5,763;0,012;0,071;-0,067;
20190809_155002;0,450;8,437;8,052;-0,044;0,181;0,007;
20190809_155002;-1,769;6,359;7,084;-0,094;0,270;0,016;
20190809_155002;-0,709;7,175;7,451;-0,014;0,270;-0,111;
20190809_155002;2,954;7,807;11,471;-0,223;0,035;0,140;
20190809_155003;-4,027;6,761;7,084;0,133;0,147;0,003;
20190809_155003;-1,695;5,646;6,591;-0,083;0,012;0,138;
20190809_155003;3,048;4,278;9,996;-0,136;0,084;0,163;
20190809_155003;-0,498;6,366;5,782;-0,021;0,152;0,145;
20190809_155003;-3,634;5,921;6,416;0,094;0,042;-0,058;
20190809_155003;0,713;6,946;8,021;0,031;-0,120;0,094;
20190809_155003;-2,600;6,989;0,385;0,348;0,413;-0,390;
20190809_155003;-4,391;5,775;3,788;0,058;0,124;-0,128;
20190809_155003;2,339;5,112;8,284;0,097;0,043;-0,010;
20190809_155003;0,441;5,306;7,807;0,010;0,000;0,079;
20190809_155004;-3,955;5,533;7,879;0,021;-0,124;0,072;
20190809_155004;-0,318;6,421;6,215;0,046;-0,199;0,204;
20190809_155004;1,604;6,357;7,219;-0,057;-0,171;0,248;
20190809_155004;-0,627;6,426;8,090;-0,027;-0,046;0,152;
20190809_155004;-2,856;7,247;6,088;0,059;0,127;0,150;
20190809_155004;-0,139;6,867;5,480;0,062;0,081;0,245;
20190809_155004;-0,352;6,821;5,744;0,104;0,219;0,175;
20190809_155004;-0,141;6,340;6,084;0,058;0,293;0,211;
20190809_155004;-1,535;6,457;5,401;-0,015;0,287;0,155;
20190809_155005;0,900;7,111;7,338;0,027;0,313;0,247;
20190809_155005;0,381;6,721;8,188;0,026;0,115;0,160;
20190809_155005;2,102;8,274;10,120;-0,041;0,272;-0,021;
20190809_155005;0,711;6,302;9,572;-0,255;-0,218;0,199;
20190809_155005;2,274;8,578;7,934;-0,112;-0,288;-0,009;
20190809_155005;-0,189;5,988;3,931;0,115;-0,385;-0,266;
20190809_155005;2,758;6,414;8,047;-0,069;-0,542;-0,289;
20190809_155005;-0,543;6,476;6,304;0,052;-0,450;-0,205;
20190809_155005;-1,468;7,621;6,433;-0,003;-0,224;-0,130;
20190809_155005;-2,672;6,680;9,017;0,010;0,082;0,095;
20190809_155006;0,690;6,768;7,954;-0,030;0,433;0,141;
20190809_155006;0,330;6,093;7,286;0,019;0,479;0,327;
20190809_155006;3,610;6,385;7,336;0,009;0,448;0,131;
20190809_155006;2,284;6,414;6,603;0,038;0,243;-0,031;
20190809_155006;0,840;6,543;7,321;-0,027;0,084;-0,146;
20190809_155006;3,215;5,569;6,393;-0,008;-0,075;-0,188;
20190809_155006;0,991;6,321;5,284;0,079;-0,224;-0,333;
20190809_155006;2,033;5,971;7,403;-0,096;-0,348;-0,407;
20190809_155006;-2,514;6,440;6,053;0,022;-0,476;-0,407;
20190809_155006;1,982;5,389;5,296;-0,057;-0,466;-0,216;
20190809_155007;-1,204;6,347;7,271;-0,076;-0,360;-0,356;
20190809_155007;2,337;6,153;6,845;-0,089;-0,344;-0,213;
20190809_155007;-0,115;6,402;7,039;-0,032;-0,283;-0,303;
20190809_155007;0,524;6,290;6,342;-0,016;-0,251;-0,200;
20190809_155007;0,208;6,488;5,660;0,067;-0,204;-0,253;
20190809_155007;2,650;6,117;7,652;0,002;-0,211;-0,131;
20190809_155007;0,625;6,199;8,092;-0,055;-0,174;-0,277;
20190809_155007;0,215;6,031;6,208;0,005;-0,165;-0,216;
20190809_155007;1,815;6,354;7,209;0,022;-0,155;-0,227;
20190809_155008;0,333;5,904;7,441;-0,018;-0,130;-0,217;
20190809_155008;1,166;6,359;7,350;-0,016;-0,130;-0,275;
20190809_155008;0,716;7,266;8,416;0,045;-0,135;-0,262;
20190809_155008;1,671;6,395;5,976;0,096;-0,219;-0,321;
20190809_155008;-0,136;5,923;5,887;0,008;-0,311;-0,341;
20190809_155008;1,202;6,244;7,309;-0,036;-0,356;-0,352;
20190809_155008;1,314;6,632;8,425;-0,099;-0,401;-0,287;
20190809_155008;-1,889;6,622;6,847;0,031;-0,354;-0,296;
20190809_155008;0,646;5,842;8,085;-0,090;-0,345;-0,099;
20190809_155009;-2,203;7,168;6,962;-0,045;-0,142;-0,054;
20190809_155009;-0,464;6,488;7,673;0,014;0,109;0,032;
20190809_155009;1,451;6,021;6,735;0,059;0,288;0,134;
20190809_155009;3,428;5,717;7,123;-0,038;0,299;-0,150;
20190809_155009;3,036;6,517;8,313;-0,064;0,044;-0,252;
20190809_155009;2,320;6,148;6,299;0,027;-0,129;-0,449;
20190809_155009;1,779;5,756;6,309;0,025;-0,336;-0,521;
20190809_155009;0,668;6,589;9,055;0,014;-0,427;-0,581;
20190809_155009;1,621;6,790;7,120;0,051;-0,515;-0,494;
20190809_155009;0,311;5,286;5,923;0,061;-0,473;-0,488;
20190809_155010;0,498;7,846;8,648;-0,343;-0,510;-0,242;
20190809_155010;-1,159;7,065;7,271;0,328;-0,410;-0,456;
20190809_155010;3,105;5,531;4,736;0,109;-0,585;0,034;
20190809_155010;-0,124;6,553;8,880;-0,007;-0,252;-0,105;
20190809_155010;1,008;7,762;5,061;0,243;-0,277;-0,117;
20190809_155010;3,996;6,682;10,470;0,020;-0,235;-0,056;
20190809_155010;-1,834;5,128;4,573;0,027;-0,226;-0,114;
20190809_155010;4,001;8,997;10,020;-0,013;-0,215;-0,052;
20190809_155010;-1,020;7,022;9,917;0,016;-0,131;-0,101;
20190809_155010;-2,224;7,345;9,742;-0,061;-0,004;0,005;
20190809_155011;0,287;8,657;13,884;-0,073;0,279;0,199;
20190809_155011;1,111;6,835;8,203;-0,046;0,399;0,283;
20190809_155011;0,005;6,093;7,195;-0,027;0,331;0,161;
20190809_155011;2,954;6,146;4,863;0,071;0,126;0,103;
20190809_155011;2,588;5,258;3,395;0,101;-0,042;0,013;
20190809_155011;1,259;8,708;11,001;-0,106;-0,084;-0,065;
20190809_155011;1,630;6,072;6,290;-0,019;-0,209;-0,057;
20190809_155011;-1,168;7,015;9,694;-0,030;-0,152;-0,043;
20190809_155011;0,445;5,808;5,136;0,027;-0,060;0,080;
20190809_155012;-0,673;5,873;3,493;0,074;0,017;0,108;
20190809_155012;-3,321;7,420;6,637;0,148;0,137;0,103;
20190809_155012;-0,381;5,294;6,577;0,012;0,195;0,267;
20190809_155012;1,312;4,688;6,400;0,047;0,237;0,241;
20190809_155012;0,543;6,014;6,225;0,033;0,156;0,205;
20190809_155012;2,222;6,450;8,566;-0,036;0,075;0,253;
20190809_155012;-0,249;6,081;7,037;0,032;0,105;0,123;
20190809_155012;2,308;7,223;9,048;0,004;0,135;0,166;
20190809_155012;0,766;6,891;9,301;-0,003;0,119;0,110;
20190809_155012;1,233;6,749;8,191;0,029;0,078;0,132;
20190809_155013;0,742;6,687;7,144;0,058;0,142;0,141;
20190809_155013;-0,184;5,976;5,200;0,058;0,192;0,190;
20190809_155013;-0,532;7,144;6,907;-0,039;0,197;0,221;
20190809_155013;0,570;4,470;5,025;-0,036;0,149;0,291;
20190809_155013;1,106;5,555;5,559;0,010;0,112;0,230;
20190809_155013;1,161;6,223;8,023;0,158;0,111;0,270;
20190809_155013;0,692;6,804;7,630;0,001;0,142;0,278;
20190809_155013;0,855;6,792;5,871;0,087;0,199;0,251;
20190809_155013;-0,184;6,328;8,715;0,001;0,287;0,254;
20190809_155014;1,092;7,393;9,591;0,035;0,349;0,260;
20190809_155014;0,644;5,631;5,435;0,027;0,386;0,259;
20190809_155014;0,864;8,416;11,360;-0,046;0,322;0,192;
20190809_155014;0,548;6,012;8,298;0,005;0,233;0,178;
20190809_155014;1,142;7,389;9,462;-0,013;0,135;0,202;
20190809_155014;-0,711;7,456;9,292;-0,019;0,110;0,079;
20190809_155014;1,875;5,318;5,863;0,090;0,018;0,153;
20190809_155014;1,592;6,548;3,587;0,047;0,006;0,126;
20190809_155014;-0,115;6,450;8,516;-0,084;0,001;0,057;
20190809_155014;0,587;9,196;10,288;0,032;0,125;0,136;
20190809_155015;0,409;5,478;5,950;-0,016;0,224;0,222;
20190809_155015;-0,984;7,827;6,843;0,028;0,298;0,279;
20190809_155015;0,242;5,772;3,390;0,212;0,288;0,333;
20190809_155015;1,848;4,887;2,119;0,176;0,206;0,286;
20190809_155015;-0,390;3,639;3,120;0,095;0,078;0,270;
20190809_155015;0,117;7,049;7,939;0,073;0,194;0,191;
20190809_155015;2,018;4,161;5,959;0,159;0,292;0,232;
20190809_155015;0,342;5,569;8,028;0,229;0,278;0,155;
20190809_155015;1,463;8,061;11,274;-0,106;0,406;0,110;
20190809_155016;2,255;8,727;12,847;-0,261;0,310;0,128;
20190809_155016;0,481;3,369;7,939;-0,277;0,172;0,072;
20190809_155016;0,706;7,420;8,976;0,076;0,071;-0,027;
20190809_155016;-0,251;4,053;0,352;0,182;-0,068;0,055;
20190809_155016;0,919;4,851;4,829;0,157;-0,069;0,030;
20190809_155016;0,074;2,085;1,453;0,253;-0,173;0,122;
20190809_155016;1,226;9,706;12,610;-0,382;0,074;0,062;
20190809_155016;0,646;5,916;8,270;-0,178;0,032;0,184;
20190809_155016;-1,844;6,658;6,323;0,025;0,163;0,122;
20190809_155016;1,214;7,599;8,825;-0,145;0,206;0,244;
20190809_155017;1,322;6,163;7,764;0,020;0,201;0,197;
20190809_155017;-0,400;5,351;6,165;0,078;0,142;0,092;
20190809_155017;1,319;6,333;6,053;0,041;0,058;0,081;
20190809_155017;0,294;6,795;6,819;0,076;0,071;0,045;
20190809_155017;0,436;6,541;7,956;-0,051;0,078;0,125;
20190809_155017;0,407;4,207;4,065;0,055;0,139;0,084;
20190809_155017;0,572;6,005;4,140;0,153;0,190;0,060;
20190809_155017;0,215;4,092;2,626;0,075;0,141;0,042;
20190809_155017;0,043;7,259;9,572;0,000;0,091;-0,075;
20190809_155018;0,953;7,807;9,014;-0,010;-0,037;0,036;
20190809_155018;-1,274;4,580;2,243;0,044;-0,056;0,077;
20190809_155018;-0,038;5,471;7,697;0,081;-0,055;0,163;
20190809_155018;-0,883;8,595;10,319;-0,062;0,126;0,136;
20190809_155018;2,011;4,662;7,791;-0,104;0,111;0,248;
20190809_155018;0,505;6,744;7,125;0,067;0,185;0,131;
20190809_155018;1,006;6,500;6,266;0,097;0,214;0,101;
20190809_155018;1,123;6,230;7,932;0,032;0,213;0,076;
20190809_155018;1,173;6,469;6,424;0,069;0,123;0,052;
20190809_155019;3,644;6,685;13,601;-0,151;-0,052;0,148;
20190809_155019;0,132;8,150;10,321;-0,020;-0,004;0,014;
20190809_155019;2,981;6,586;10,307;-0,555;0,070;0,098;
20190809_155019;-0,194;5,315;5,851;-0,072;0,093;0,063;
20190809_155019;1,743;5,660;6,201;0,028;0,150;0,033;
20190809_155019;0,227;5,863;7,752;-0,117;0,108;-0,087;
20190809_155019;0,757;4,111;1,401;0,130;0,026;-0,054;
20190809_155019;1,353;7,343;7,738;0,082;-0,024;-0,098;
20190809_155019;0,239;7,037;10,803;-0,097;-0,076;-0,124;
20190809_155019;1,199;5,983;5,856;0,052;-0,128;-0,075;
20190809_155020;-0,079;6,187;7,894;-0,011;-0,124;-0,118;
20190809_155020;0,910;7,602;9,797;-0,111;-0,124;-0,002;
20190809_155020;-1,812;3,888;2,780;0,310;-0,043;-0,067;
20190809_155020;-0,476;6,472;6,735;0,013;0,074;-0,033;
20190809_155020;0,931;8,614;12,251;-0,147;0,046;-0,072;
20190809_155020;2,741;6,582;6,996;-0,084;-0,037;-0,063;
20190809_155020;0,946;8,028;12,251;-0,017;-0,113;-0,087;
20190809_155020;1,482;9,084;12,548;-0,085;-0,060;-0,084;
20190809_155020;-0,455;6,134;5,035;0,021;-0,105;-0,059;
20190809_155020;0,783;7,195;10,479;0,052;-0,092;-0,056;
20190809_155021;-0,026;8,540;8,803;0,029;-0,030;-0,046;
20190809_155021;1,099;7,084;9,225;-0,022;-0,032;-0,035;
20190809_155021;0,563;7,757;13,405;-0,366;0,041;0,098;
20190809_155021;1,453;5,978;6,867;-0,080;0,065;0,005;
20190809_155021;1,068;5,370;7,549;-0,063;-0,015;-0,039;
20190809_155021;1,128;6,014;6,132;-0,113;-0,066;-0,039;
20190809_155021;0,551;7,887;11,511;-0,074;-0,111;-0,109;
20190809_155021;0,716;7,211;6,404;0,074;-0,163;0,023;
20190809_155021;-0,034;4,848;3,036;0,140;-0,057;0,107;
20190809_155022;0,335;5,693;7,966;0,031;0,044;0,010;
20190809_155022;1,075;6,867;7,695;0,224;0,013;0,065;
20190809_155022;1,417;5,715;8,796;-0,034;-0,004;0,103;
20190809_155022;0,634;6,546;5,490;0,111;0,012;-0,005;
20190809_155022;0,757;6,438;4,508;-0,002;-0,049;0,050;
20190809_155022;1,654;5,602;5,995;0,027;-0,105;0,040;
20190809_155022;0,706;6,709;5,713;0,011;-0,021;0,014;
20190809_155022;-0,742;5,310;5,638;0,046;-0,001;0,096;
20190809_155022;1,061;6,110;4,262;0,029;0,092;0,159;
20190809_155023;1,456;5,495;6,445;0,045;0,166;0,153;
20190809_155023;0,627;6,026;6,036;0,029;0,135;0,080;
20190809_155023;2,334;4,683;2,828;0,082;0,019;0,058;
20190809_155023;-0,579;6,517;8,337;-0,066;0,023;-0,006;
20190809_155023;1,559;5,452;1,173;0,112;-0,063;0,041;
20190809_155023;0,345;4,029;4,456;0,144;-0,042;0,035;
20190809_155023;-0,965;6,043;4,551;0,103;0,038;0,074;
20190809_155023;1,173;5,114;5,485;-0,036;0,087;0,204;
20190809_155023;1,199;5,291;5,025;-0,145;0,157;0,081;
20190809_155023;1,999;8,037;9,424;-0,102;0,127;0,101;
20190809_155024;1,566;7,348;10,204;-0,122;0,092;0,027;
20190809_155024;-0,862;7,032;9,345;-0,117;0,144;-0,013;
20190809_155024;1,302;7,693;8,866;-0,079;0,083;0,078;
20190809_155024;1,022;5,552;8,638;-0,097;0,063;-0,003;
20190809_155024;0,572;7,022;8,025;-0,040;0,026;0,023;
20190809_155024;0,864;6,634;6,270;0,141;0,030;0,002;
20190809_155024;1,913;6,771;8,325;0,002;0,005;0,036;
20190809_155024;-0,390;6,491;8,425;-0,066;0,084;0,017;
20190809_155024;0,615;7,966;9,795;-0,077;0,071;0,068;
20190809_155025;0,024;6,510;9,239;-0,070;0,045;0,029;
20190809_155025;0,742;6,263;6,962;-0,068;0,076;-0,001;
20190809_155025;1,022;5,918;7,367;0,059;0,022;-0,013;
20190809_155025;0,395;7,343;8,255;-0,010;-0,018;-0,024;
20190809_155025;0,864;6,553;9,299;-0,076;-0,017;-0,072;
20190809_155025;-0,534;7,312;9,196;-0,023;-0,032;-0,011;
20190809_155025;0,536;7,321;7,630;0,013;-0,031;-0,017;
20190809_155025;1,068;6,246;7,384;-0,016;-0,003;0,064;
20190809_155025;0,160;5,902;6,457;0,162;0,035;0,001;
20190809_155025;2,124;6,783;8,447;-0,136;-0,027;0,076;
20190809_155026;1,803;7,410;9,740;-0,147;0,031;-0,009;
20190809_155026;2,574;7,041;6,902;0,053;-0,087;0,002;
20190809_155026;0,747;7,128;9,098;-0,099;-0,060;-0,175;
20190809_155026;1,970;7,578;5,789;-0,023;-0,209;0,077;
20190809_155026;-0,388;5,449;5,969;-0,019;-0,113;-0,020;
20190809_155026;0,745;7,989;6,713;0,127;-0,023;0,115;
20190809_155026;-2,313;6,517;10,238;-0,226;0,074;0,121;
20190809_155026;1,372;6,493;8,689;0,006;0,030;0,175;
20190809_155026;-0,405;6,357;3,826;0,071;0,051;0,209;
20190809_155027;1,906;6,718;6,725;0,042;0,029;0,191;
20190809_155027;0,946;5,638;2,162;0,164;0,024;0,177;
20190809_155027;1,590;4,932;4,592;0,117;0,042;0,111;
20190809_155027;0,613;6,788;10,218;-0,074;0,074;0,187;
20190809_155027;2,126;8,270;12,131;-0,098;0,247;0,138;
20190809_155027;1,075;7,676;9,859;0,008;0,257;0,202;
20190809_155027;0,467;9,026;7,719;0,199;0,267;0,119;
20190809_155027;-0,010;3,788;3,934;0,378;0,250;0,062;
20190809_155027;0,060;4,836;2,986;0,146;0,092;0,091;
20190809_155028;2,251;6,586;8,705;-0,029;-0,012;0,225;
20190809_155028;-0,086;6,809;6,596;0,044;0,108;0,126;
20190809_155028;1,053;6,285;6,553;0,191;0,145;0,105;
20190809_155028;0,718;6,220;6,601;0,077;0,210;0,122;
20190809_155028;0,591;5,183;3,615;0,058;0,264;0,061;
20190809_155028;0,460;9,057;11,595;-0,088;0,313;0,065;
20190809_155028;1,709;6,740;7,080;0,087;0,258;0,023;
20190809_155028;0,201;8,052;10,089;0,073;0,148;-0,028;
20190809_155028;0,735;4,307;3,900;0,033;0,005;-0,079;
20190809_155028;0,682;5,669;7,075;0,018;-0,111;-0,080;
20190809_155029;0,644;5,507;5,456;-0,024;-0,115;-0,180;
20190809_155029;0,041;6,958;11,435;-0,121;-0,197;-0,022;
20190809_155029;0,488;9,112;9,675;0,006;-0,016;-0,049;
20190809_155029;-1,800;6,419;6,215;-0,206;0,080;0,072;
20190809_155029;0,271;8,250;9,821;-0,108;0,311;0,026;
20190809_155029;0,752;5,801;6,155;-0,052;0,366;0,067;
20190809_155029;2,796;4,377;6,225;-0,142;0,235;-0,138;
20190809_155029;3,026;6,522;5,404;0,011;0,030;-0,342;
20190809_155029;3,014;7,104;10,398;0,179;-0,249;-0,465;
20190809_155030;2,035;6,412;9,543;-0,038;-0,425;-0,605;
20190809_155030;0,668;8,729;10,530;0,084;-0,646;-0,483;
20190809_155030;1,827;6,065;8,583;0,060;-0,625;-0,530;
20190809_155030;0,718;6,517;6,412;0,123;-0,669;-0,305;
20190809_155030;-3,108;6,117;6,984;0,108;-0,247;-0,325;
20190809_155030;-0,709;4,056;2,768;-0,018;-0,042;-0,020;
20190809_155030;0,385;5,167;5,957;-0,243;0,038;-0,069;
20190809_155030;0,000;6,563;6,622;-0,115;-0,053;-0,291;
20190809_155030;1,425;6,680;8,456;-0,119;-0,214;-0,191;
20190809_155030;2,018;6,694;4,750;-0,084;-0,068;-0,356;
20190809_155031;2,614;6,167;8,758;-0,037;-0,162;-0,441;
20190809_155031;1,705;5,370;7,743;-0,031;-0,287;-0,500;
20190809_155031;2,160;6,852;9,366;-0,015;-0,336;-0,477;
20190809_155031;0,996;6,665;5,234;0,316;-0,427;-0,572;
20190809_155031;0,299;5,382;6,754;0,040;-0,380;-0,369;
20190809_155031;0,893;7,819;10,175;0,003;-0,354;-0,381;
20190809_155031;0,622;8,480;9,828;-0,136;-0,338;-0,362;
20190809_155031;1,877;6,749;9,072;0,049;-0,455;-0,376;
20190809_155031;0,424;6,732;7,508;0,108;-0,447;-0,347;
20190809_155032;-0,206;5,681;8,016;0,017;-0,411;-0,347;
20190809_155032;-0,828;5,904;7,448;0,000;-0,230;-0,260;
20190809_155032;-0,194;5,622;11,487;0,071;-0,165;-0,112;
20190809_155032;1,482;7,350;8,875;-0,192;-0,106;-0,037;
20190809_155032;0,790;6,393;4,702;0,033;-0,103;-0,161;
20190809_155032;0,381;7,063;11,686;-0,128;-0,123;-0,184;
20190809_155032;1,590;5,909;5,377;-0,002;-0,256;-0,226;
20190809_155032;0,625;5,775;6,886;0,079;-0,253;-0,259;
20190809_155032;0,414;6,390;7,740;0,082;-0,280;-0,154;
20190809_155032;0,172;8,794;13,350;-0,258;-0,112;-0,151;
20190809_155033;0,110;6,053;7,879;-0,074;-0,175;-0,092;
20190809_155033;0,220;6,019;7,891;0,004;-0,168;-0,056;
20190809_155033;-0,194;6,759;5,248;0,135;-0,064;-0,059;
20190809_155033;0,383;6,790;7,944;0,094;-0,046;-0,021;
20190809_155033;0,634;5,080;4,958;0,111;-0,016;-0,086;
20190809_155033;1,633;8,456;13,010;-0,334;-0,035;-0,042;
20190809_155033;1,429;5,796;7,913;-0,060;-0,049;-0,118;
20190809_155033;1,927;8,164;12,871;-0,068;-0,087;-0,154;
20190809_155033;0,496;4,575;6,543;0,164;-0,169;-0,131;
20190809_155034;1,437;4,934;4,774;0,097;-0,109;-0,172;
20190809_155034;0,206;6,850;7,535;0,009;-0,084;-0,175;
20190809_155034;1,061;7,479;9,268;-0,060;-0,066;-0,126;
20190809_155034;-0,883;5,942;4,985;0,067;-0,028;-0,146;
20190809_155034;0,711;4,647;6,029;0,123;-0,048;-0,124;
20190809_155034;0,352;5,303;4,966;0,008;0,000;-0,124;
20190809_155034;1,568;3,900;1,458;0,033;-0,044;-0,180;
20190809_155034;0,364;5,191;3,661;0,085;-0,166;-0,221;
20190809_155034;1,381;6,754;8,557;0,058;-0,177;-0,347;
20190809_155034;1,228;7,465;12,605;-0,046;-0,218;-0,281;
20190809_155035;0,314;6,354;8,911;-0,096;-0,248;-0,259;
20190809_155035;0,510;5,420;7,884;-0,025;-0,238;-0,252;
20190809_155035;1,231;5,203;2,847;0,106;-0,206;-0,206;
20190809_155035;0,567;6,383;7,602;0,057;-0,234;-0,238;
20190809_155035;0,687;5,720;8,820;-0,013;-0,229;-0,279;
20190809_155035;-0,352;5,045;5,045;0,092;-0,246;-0,256;
20190809_155035;0,749;5,341;6,716;0,061;-0,204;-0,215;
20190809_155035;0,196;5,574;7,070;-0,016;-0,151;-0,235;
20190809_155035;1,511;5,823;7,329;-0,025;-0,199;-0,240;
20190809_155036;0,560;7,108;10,597;-0,046;-0,204;-0,280;
20190809_155036;0,790;6,361;5,571;0,152;-0,244;-0,280;
20190809_155036;0,690;5,351;6,488;0,077;-0,270;-0,254;
20190809_155036;1,286;6,129;6,519;0,078;-0,308;-0,278;
20190809_155036;0,606;6,486;8,373;-0,088;-0,305;-0,234;
20190809_155036;1,326;6,510;7,420;0,127;-0,352;-0,236;
20190809_155036;0,421;6,644;6,048;0,116;-0,332;-0,175;
20190809_155036;0,136;5,160;5,011;0,016;-0,264;-0,180;
20190809_155036;0,472;5,868;8,794;-0,043;-0,251;-0,074;
20190809_155036;-0,187;6,685;9,953;-0,081;-0,114;-0,041;
20190809_155037;0,759;6,412;5,947;0,120;-0,050;-0,062;
20190809_155037;1,745;6,100;9,512;0,117;-0,027;-0,153;
20190809_155037;-0,699;5,229;6,452;0,181;-0,096;-0,070;
20190809_155037;-0,529;7,819;7,499;0,093;-0,085;-0,135;
20190809_155037;0,785;6,196;3,553;0,036;0,034;-0,034;
20190809_155037;-3,373;5,555;4,764;0,053;0,187;-0,122;
20190809_155037;-0,584;5,109;7,147;-0,043;0,201;-0,148;
20190809_155037;-0,634;5,483;2,452;-0,162;0,227;0,130;
20190809_155037;-3,036;6,132;4,482;0,197;0,260;-0,140;
20190809_155038;-2,468;6,448;7,329;0,152;-0,072;-0,131;
20190809_155038;-1,879;7,367;7,427;0,059;-0,070;-0,071;
20190809_155038;-3,582;7,056;5,997;0,245;-0,144;-0,100;
20190809_155038;-5,138;6,163;6,857;0,063;0,052;-0,010;
20190809_155038;-0,096;4,094;4,439;0,052;0,063;0,311;
20190809_155038;1,583;4,080;6,795;-0,146;-0,058;0,609;
20190809_155038;-4,211;4,798;8,789;0,052;0,270;0,157;
20190809_155038;-2,131;6,505;6,242;0,144;0,113;0,171;
20190809_155038;-0,788;6,802;4,841;0,131;0,083;0,190;
20190809_155039;-2,425;5,959;6,371;0,090;0,082;0,159;
20190809_155039;1,681;7,635;8,440;0,052;0,273;0,158;
20190809_155039;-0,326;4,159;7,989;-0,007;0,171;0,174;
20190809_155039;-1,049;6,378;8,823;-0,004;0,195;0,045;
20190809_155039;0,915;6,105;8,957;-0,095;0,119;0,172;
20190809_155039;1,585;6,002;8,526;0,021;0,105;0,077;
20190809_155039;1,247;4,551;8,133;-0,217;-0,130;-0,085;
20190809_155039;0,977;6,692;12,009;-0,308;-0,325;-0,113;
20190809_155039;-1,817;4,252;9,618;-0,174;-0,516;0,005;
20190809_155039;0,204;4,233;4,664;-0,035;-0,336;-0,042;
20190809_155040;-2,840;6,541;6,613;-0,139;-0,202;0,131;
20190809_155040;0,172;7,348;10,616;-0,374;-0,221;0,311;
20190809_155040;0,974;7,628;12,428;-0,050;-0,164;0,240;
20190809_155040;2,243;7,341;10,285;-0,064;0,032;0,141;
20190809_155040;2,298;5,744;8,926;0,114;0,081;0,115;
20190809_155040;0,668;4,034;6,828;0,133;0,077;0,030;
20190809_155040;2,217;3,941;5,923;-0,008;0,057;0,100;
20190809_155040;-0,144;1,836;-3,395;0,368;-0,046;0,105;
20190809_155040;0,792;5,083;4,120;0,200;-0,284;0,125;
20190809_155041;2,356;5,136;3,979;0,127;-0,003;0,031;
20190809_155041;0,618;5,777;6,294;0,106;0,019;0,108;
20190809_155041;1,281;5,138;4,877;0,141;0,074;0,120;
20190809_155041;0,783;3,725;-0,242;0,255;0,103;0,139;
20190809_155041;2,222;5,279;3,864;0,248;0,115;0,114;
20190809_155041;0,979;5,523;4,547;0,080;0,050;0,129;
20190809_155041;1,808;10,968;4,578;-0,290;-0,006;0,036;
20190809_155041;0,886;5,887;-1,824;0,131;-0,383;0,270;
20190809_155041;3,510;5,583;1,310;0,151;-0,240;0,442;
20190809_155041;3,689;4,978;5,789;-0,112;-0,202;0,078;
20190809_155042;3,795;6,144;7,815;-0,158;-0,095;0,005;
20190809_155042;3,031;5,488;8,270;-0,060;0,123;-0,119;
20190809_155042;1,635;8,672;7,635;0,025;0,169;-0,028;
20190809_155042;-0,287;6,665;1,966;0,153;0,164;-0,058;
20190809_155042;0,383;4,424;2,236;0,142;0,022;0,023;
20190809_155042;1,113;4,499;-1,645;0,434;-0,004;0,075;
20190809_155042;2,318;3,170;-2,368;-0,034;-0,463;0,129;
20190809_155042;5,945;8,064;25,946;-1,080;-0,155;0,337;
20190809_155042;3,120;6,091;5,160;-0,330;0,082;0,064;
20190809_155042;3,024;6,144;9,579;-0,066;0,046;-0,038;
20190809_155043;3,819;9,869;13,273;0,232;-0,209;0,112;
20190809_155043;0,534;6,850;1,901;0,048;-0,003;-0,042;
20190809_155043;2,045;4,178;-0,939;0,244;-0,052;0,038;
20190809_155043;4,458;5,397;3,730;0,059;0,075;0,015;
20190809_155043;2,751;5,720;8,701;0,025;0,076;0,076;
20190809_155043;1,408;2,713;2,672;-0,082;0,021;0,039;
20190809_155043;3,338;3,515;2,291;-0,083;0,022;0,018;
20190809_155043;-0,989;11,167;5,069;0,040;-0,058;0,068;
20190809_155043;3,407;7,175;8,296;-0,233;-0,051;0,127;
20190809_155044;2,176;5,492;4,223;0,003;-0,015;0,097;
20190809_155044;1,568;8,171;-1,865;0,510;-0,008;0,011;
20190809_155044;0,891;5,169;-1,867;0,322;-0,024;-0,090;
20190809_155044;3,850;0,496;2,195;-0,170;0,122;0,879;
20190809_155044;10,903;2,962;1,367;-0,342;-0,458;0,234;
20190809_155044;3,771;4,343;8,593;-0,074;0,062;-0,060;
20190809_155044;-2,145;6,230;5,349;0,071;0,246;-0,315;
20190809_155044;4,336;7,475;9,069;-0,260;0,077;0,061;
20190809_155044;2,780;9,692;10,099;0,036;0,048;0,050;
20190809_155044;-1,872;10,944;6,658;0,066;0,207;-0,209;
20190809_155045;1,221;6,381;6,467;0,062;0,101;-0,108;
20190809_155045;4,003;7,154;5,004;0,352;-0,020;-0,007;
20190809_155045;2,737;9,603;8,054;0,026;-0,060;-0,007;
20190809_155045;4,673;9,680;12,457;-0,218;0,091;-0,026;
20190809_155045;0,737;8,483;6,223;0,190;-0,030;-0,074;
20190809_155045;0,869;7,645;4,659;0,192;-0,152;-0,034;
20190809_155045;2,626;5,341;5,073;-0,285;-0,073;0,000;
20190809_155045;2,612;6,989;10,736;-0,053;-0,111;0,048;
20190809_155045;0,007;3,474;1,386;0,082;0,014;-0,132;
20190809_155046;2,339;0,795;-0,749;0,386;0,024;0,044;
20190809_155046;5,581;5,499;10,491;-0,081;0,032;0,170;
20190809_155046;1,903;5,868;9,369;-0,390;0,035;0,158;
20190809_155046;-2,693;5,808;7,365;-0,037;0,101;-0,089;
20190809_155046;0,433;5,035;1,360;0,209;-0,088;0,009;
20190809_155046;2,184;9,610;0,883;0,238;-0,165;0,014;
20190809_155046;-1,195;13,130;8,933;0,269;-0,108;-0,153;
20190809_155046;3,206;3,132;9,414;0,174;-0,020;-0,140;
20190809_155046;4,420;2,028;3,318;-0,049;-0,141;0,084;
20190809_155047;2,547;2,500;3,936;-0,474;-0,060;0,121;
20190809_155047;-2,583;7,259;0,093;0,506;0,111;-0,320;
20190809_155047;1,671;3,345;-3,723;0,628;-0,003;-0,056;
20190809_155047;3,024;2,789;-0,455;0,389;0,018;0,045;
20190809_155047;3,474;5,727;8,425;0,068;0,034;0,101;
20190809_155047;1,317;6,199;10,372;-0,038;0,066;0,033;
20190809_155047;2,579;7,573;14,799;-0,368;-0,008;0,003;
20190809_155047;3,448;8,028;9,649;-0,154;-0,142;0,140;
20190809_155047;0,328;6,218;1,640;0,227;-0,059;-0,126;
20190809_155047;1,990;5,602;5,104;0,114;-0,148;-0,015;
20190809_155048;3,536;4,650;4,168;0,046;-0,121;-0,017;
20190809_155048;3,553;1,899;3,802;0,044;-0,182;-0,023;
20190809_155048;3,713;2,916;6,144;-0,203;-0,031;-0,075;
20190809_155048;0,704;6,306;8,844;-0,177;0,045;0,007;
20190809_155048;0,354;6,845;4,551;0,146;0,146;-0,115;
20190809_155048;3,627;9,153;7,762;0,181;0,122;0,071;
20190809_155048;-0,874;7,855;7,508;0,115;0,096;-0,008;
20190809_155048;3,464;6,079;7,800;-0,097;0,107;0,017;
20190809_155048;3,139;4,542;3,031;-0,024;0,015;0,071;
20190809_155048;0,737;5,782;6,318;-0,104;-0,125;0,150;
20190809_155049;0,247;6,184;5,282;0,117;-0,070;-0,006;
20190809_155049;1,302;6,601;10,475;-0,076;-0,027;0,044;
20190809_155049;2,368;6,881;12,067;-0,260;-0,033;0,126;
20190809_155049;1,228;6,479;11,080;-0,454;0,123;0,031;
20190809_155049;1,990;10,444;22,879;-0,463;0,198;-0,010;
20190809_155049;2,212;10,250;17,640;-0,325;0,223;-0,267;
20190809_155049;-0,134;10,338;14,964;-0,131;0,299;-0,248;
20190809_155049;1,614;5,614;7,144;0,006;0,049;-0,042;
20190809_155049;1,760;5,239;9,163;-0,233;-0,005;0,074;
20190809_155050;1,310;4,609;5,157;0,015;-0,031;0,070;
20190809_155050;0,644;5,133;3,469;0,078;-0,042;0,063;
20190809_155050;1,777;3,943;0,192;0,250;-0,064;0,042;
20190809_155050;1,398;9,069;5,143;0,218;-0,033;0,039;
20190809_155050;1,784;10,501;12,210;0,130;0,042;-0,069;
20190809_155050;1,633;9,960;7,630;0,002;-0,060;0,054;
20190809_155050;3,120;7,084;10,151;0,063;0,013;-0,051;
20190809_155050;2,971;9,682;9,471;0,024;0,007;-0,058;
20190809_155050;0,752;3,941;3,627;-0,047;-0,069;-0,004;
20190809_155051;1,568;3,369;7,044;-0,265;-0,080;0,005;
20190809_155051;0,261;2,595;0,771;-0,032;-0,132;0,043;
20190809_155051;2,090;8,004;6,723;0,315;-0,120;-0,033;
20190809_155051;0,828;8,686;2,574;-0,112;0,025;-0,032;
20190809_155051;0,438;8,124;4,104;0,328;0,002;-0,081;
20190809_155051;4,051;12,591;18,723;0,030;-0,043;0,038;
20190809_155051;4,937;11,320;2,318;0,355;-0,204;0,125;
20190809_155051;5,310;5,997;5,777;0,424;-0,576;0,229;
20190809_155051;1,635;5,322;6,828;-0,071;-0,113;-0,035;
20190809_155051;0,781;4,465;6,754;-0,236;-0,012;-0,020;
20190809_155052;0,690;3,644;4,851;-0,099;0,014;-0,038;
20190809_155052;0,488;2,887;3,517;0,085;-0,010;-0,048;
20190809_155052;2,852;6,335;13,956;-0,394;-0,001;0,082;
20190809_155052;1,075;8,523;4,487;0,232;0,028;0,009;
20190809_155052;1,190;5,715;-0,235;0,408;0,075;-0,120;
20190809_155052;4,343;6,469;3,780;0,228;0,070;-0,050;
20190809_155052;3,349;9,242;10,029;-0,159;-0,057;0,041;
20190809_155052;3,079;9,845;15,275;-0,177;-0,095;0,011;
20190809_155052;1,393;5,193;8,650;-0,220;-0,128;0,007;
20190809_155053;1,142;5,765;9,170;-0,145;-0,166;0,065;
20190809_155053;1,867;5,938;5,006;0,083;-0,012;-0,079;
20190809_155053;0,769;4,307;3,637;-0,005;0,107;-0,049;
20190809_155053;-0,804;2,308;-0,563;0,322;0,208;-0,156;
20190809_155053;-0,148;8,978;7,772;0,127;0,154;-0,103;
20190809_155053;1,049;8,734;6,440;0,042;-0,092;0,038;
20190809_155053;-0,342;4,970;-0,994;0,122;-0,128;0,010;
20190809_155053;-1,161;11,344;10,096;0,263;0,072;-0,090;
20190809_155053;3,488;10,350;15,117;-0,233;0,013;0,152;
20190809_155053;4,736;10,812;15,438;-0,048;0,078;0,138;
20190809_155054;1,274;9,680;5,899;-0,110;0,017;0,039;
20190809_155054;-0,658;3,395;2,430;0,190;-0,191;0,103;
20190809_155054;4,439;4,678;4,743;-0,054;-0,009;0,056;
20190809_155054;3,237;6,376;5,653;0,009;0,094;0,054;
20190809_155054;2,160;9,845;12,426;0,239;0,174;-0,091;
20190809_155054;0,658;7,178;5,586;0,136;0,089;-0,066;
20190809_155054;1,592;5,538;5,224;0,171;-0,030;-0,046;
20190809_155054;1,001;6,584;0,132;-0,136;-0,152;0,019;
20190809_155054;-1,156;5,320;0,400;0,318;-0,239;0,017;
20190809_155055;3,591;4,305;1,176;0,033;-0,119;0,092;
20190809_155055;1,693;3,043;-1,592;0,224;-0,073;0,089;
20190809_155055;4,130;12,148;12,088;-0,057;0,163;-0,109;
20190809_155055;4,829;9,414;14,382;-0,281;0,044;0,039;
20190809_155055;3,718;7,499;12,400;-0,330;-0,113;0,090;
20190809_155055;2,919;6,225;6,639;-0,175;-0,033;-0,068;
20190809_155055;0,627;5,792;3,965;0,175;-0,071;-0,087;
20190809_155055;1,896;3,203;7,774;-0,306;-0,107;0,068;
20190809_155055;6,486;9,665;20,142;-0,147;-0,049;0,175;
20190809_155056;3,745;9,984;26,944;0,031;-0,005;-0,148;
20190809_155056;3,053;2,588;11,777;-0,348;0,077;0,073;
20190809_155056;0,144;2,995;4,051;0,097;0,108;-0,100;
20190809_155056;2,540;0,189;-2,677;-0,233;0,164;-0,459;
20190809_155056;2,133;4,997;2,749;0,012;-0,181;0,110;
20190809_155056;0,433;9,201;4,226;0,369;-0,125;-0,073;
20190809_155056;3,213;6,175;-0,486;0,331;-0,060;0,007;
20190809_155056;4,468;9,797;13,087;-0,773;-0,253;0,325;
20190809_155056;6,158;5,926;25,522;-2,351;0,644;-0,139;
20190809_155056;-1,834;3,915;12,122;-0,324;1,204;-0,929;
20190809_155057;2,440;1,453;-2,310;0,189;-0,423;0,304;
20190809_155057;5,969;4,846;6,440;0,295;-0,026;0,058;
20190809_155057;-0,103;5,923;2,586;-0,047;-0,222;0,171;
20190809_155057;1,858;11,143;7,175;0,185;-0,014;-0,039;
20190809_155057;2,322;11,207;7,654;0,187;-0,050;-0,001;
20190809_155057;2,452;9,055;4,154;0,135;0,052;-0,090;
20190809_155057;1,855;6,325;7,029;0,113;-0,102;0,059;
20190809_155057;3,632;4,436;3,620;-0,179;-0,188;0,164;
20190809_155057;6,500;5,839;5,729;-0,383;-0,038;0,125;
20190809_155057;1,051;8,703;9,012;0,132;-0,108;-0,043;
20190809_155058;1,609;7,230;5,413;-0,060;0,184;-0,345;
20190809_155058;6,874;7,539;10,506;-0,486;0,036;0,188;
20190809_155058;4,523;7,238;11,317;-0,263;-0,048;0,123;
20190809_155058;2,167;7,156;12,177;-0,318;-0,002;0,001;
20190809_155058;3,275;11,688;20,698;-0,758;-0,141;0,218;
20190809_155058;1,939;9,558;6,977;-0,440;-0,057;0,085;
20190809_155058;1,973;7,535;4,295;-0,011;-0,061;0,024;
20190809_155058;2,698;9,981;9,424;-0,041;0,027;0,059;
20190809_155058;-0,792;8,691;4,262;0,197;0,117;-0,113;
20190809_155059;0,824;2,741;-0,163;0,267;0,039;-0,003;
20190809_155059;4,587;5,590;3,996;0,093;0,139;0,024;
20190809_155059;3,294;4,966;4,882;0,032;0,161;-0,076;
20190809_155059;1,640;6,788;7,879;0,143;0,300;-0,194;
20190809_155059;0,876;9,273;6,062;0,142;0,166;-0,090;
20190809_155059;0,565;9,024;9,182;0,155;0,081;-0,054;
20190809_155059;0,527;-0,460;-1,559;0,232;-0,115;0,013;
20190809_155059;0,467;1,736;-0,297;0,274;-0,185;0,058;
20190809_155059;0,781;2,456;1,006;-0,036;-0,168;0,074;
20190809_155059;2,215;4,207;5,080;-0,321;-0,002;0,072;
20190809_155100;1,245;3,527;5,045;-0,126;-0,033;0,103;
20190809_155100;0,491;2,887;3,089;0,021;-0,042;0,045;
20190809_155100;1,614;4,594;2,794;0,069;0,006;-0,025;
20190809_155100;1,808;4,750;4,614;0,115;0,074;-0,085;
20190809_155100;0,836;6,891;3,524;0,067;0,071;-0,067;
20190809_155100;-0,048;3,464;0,175;0,146;0,028;-0,040;
20190809_155100;0,505;3,759;-0,666;0,122;0,186;-0,111;
20190809_155100;2,634;6,577;4,501;-0,115;0,051;0,040;
20190809_155100;0,352;12,898;13,029;-0,651;0,030;0,022;
20190809_155101;1,927;7,913;7,712;-0,378;-0,041;0,062;
20190809_155101;1,420;12,689;19,324;-0,375;0,014;-0,007;
20190809_155101;-2,854;9,548;12,797;-1,178;0,432;-0,051;
20190809_155101;-0,237;6,139;9,785;-0,217;0,084;-0,043;
20190809_155101;0,713;7,144;10,776;-0,243;0,122;-0,068;
20190809_155101;2,289;6,165;5,933;-0,190;0,080;-0,026;
20190809_155101;1,015;5,997;6,979;-0,185;0,082;-0,129;
20190809_155101;0,766;5,533;5,191;-0,201;0,032;-0,069;
20190809_155101;1,214;5,322;8,471;-0,394;-0,042;0,032;
20190809_155102;1,168;4,334;8,296;-0,207;0,009;-0,052;
20190809_155102;1,633;5,480;7,051;-0,094;-0,099;0,099;
20190809_155102;2,102;8,550;5,768;-0,030;-0,099;0,055;
20190809_155102;1,001;6,732;7,496;0,129;-0,049;-0,083;
20190809_155102;1,243;0,850;2,938;0,061;-0,001;-0,101;
20190809_155102;2,282;3,948;6,668;0,025;-0,115;0,026;
20190809_155102;2,339;4,190;5,380;0,147;-0,059;-0,123;
20190809_155102;-2,205;12,028;-1,611;0,506;0,307;-0,601;
20190809_155102;-0,517;4,769;-1,446;0,656;0,179;-0,236;
20190809_155102;1,810;2,856;9,249;0,054;-0,052;0,000;
20190809_155103;6,579;3,203;9,419;-0,562;-0,227;0,556;
20190809_155103;1,745;18,790;22,474;0,009;0,254;-0,088;
20190809_155103;6,199;9,017;7,190;-0,554;1,324;0,154;
20190809_155103;-1,848;7,824;5,423;0,129;-0,087;-0,301;
20190809_155103;-0,694;0,776;0,687;1,077;0,685;-0,611;
20190809_155103;-0,694;-0,412;-0,615;0,338;0,011;-0,237;
20190809_155103;3,496;7,465;6,507;0,410;0,159;-0,348;
20190809_155103;2,181;4,501;6,227;-0,380;-0,377;0,213;
20190809_155103;2,198;3,879;8,717;0,123;-0,157;-0,052;
20190809_155104;1,171;1,640;2,547;-0,022;-0,883;0,067;
20190809_155104;-0,577;6,076;3,464;0,965;1,968;-1,034;
20190809_155104;-0,259;17,188;19,000;0,109;0,776;-0,365;
20190809_155104;4,930;4,992;12,716;-0,507;0,115;-0,238;
20190809_155104;1,063;-0,371;0,136;0,610;-0,631;0,077;
20190809_155104;0,134;-0,795;1,501;-1,129;-0,154;-0,140;
20190809_155104;-1,731;0,699;3,010;0,010;-0,041;-0,126;
20190809_155104;0,692;1,575;1,604;0,173;-0,005;-0,044;
20190809_155104;-1,132;8,322;7,420;0,299;0,426;-0,267;
20190809_155105;2,229;4,108;12,227;0,201;0,090;0,008;
20190809_155105;-0,991;5,452;13,525;0,271;-0,167;-0,009;
20190809_155105;2,392;2,045;6,132;0,020;-0,169;0,022;
20190809_155105;6,412;4,140;15,467;0,019;-0,105;0,172;
20190809_155105;1,094;6,438;30,342;-1,594;0,136;-0,807;
20190809_155105;-4,077;11,102;31,848;0,202;0,834;0,085;
20190809_155105;-2,215;13,961;22,008;-0,125;0,866;-0,611;
20190809_155105;-1,523;11,224;6,144;0,515;1,507;-0,330;
20190809_155105;-2,600;9,807;29,097;-1,932;-0,590;-0,361;
20190809_155105;-6,457;6,069;18,105;-0,652;0,563;-0,785;
20190809_155106;-1,554;8,969;31,477;0,263;-0,232;-0,341;
20190809_155106;0,084;-0,098;-0,558;0,193;-0,422;0,569;
20190809_155106;-0,218;1,312;2,100;0,165;-0,380;0,201;
20190809_155106;3,797;1,805;4,666;-0,403;-0,481;0,277;
20190809_155106;4,791;4,219;10,750;-0,180;-0,124;0,109;
20190809_155106;0,637;9,067;12,081;0,033;0,077;-0,222;
20190809_155106;2,128;6,551;13,812;-0,097;-0,027;-0,003;
20190809_155106;3,488;7,439;12,364;-0,044;-0,025;0,015;
20190809_155106;2,852;7,927;9,167;-0,030;0,038;0,015;
20190809_155107;-0,919;4,623;1,700;0,214;0,101;-0,167;
20190809_155107;3,778;1,164;-0,206;0,240;-0,150;0,182;
20190809_155107;3,314;1,331;6,431;-0,241;0,034;0,099;
20190809_155107;2,895;3,582;10,183;-0,289;-0,027;0,166;
20190809_155107;-0,132;5,411;2,533;-0,115;-0,064;-0,069;
20190809_155107;-0,488;4,345;2,480;0,139;-0,017;0,005;
20190809_155107;1,721;3,405;-0,417;0,291;0,010;0,042;
20190809_155107;3,270;6,704;10,044;0,049;-0,009;0,105;
20190809_155107;1,140;5,871;7,278;0,193;0,083;-0,033;
20190809_155107;0,673;4,752;11,734;-0,082;0,066;-0,046;
20190809_155108;2,274;3,203;4,834;-0,103;0,099;0,008;
20190809_155108;3,773;2,938;6,728;0,160;0,117;0,074;
20190809_155108;3,833;2,679;7,125;-0,044;0,105;0,147;
20190809_155108;4,228;1,290;6,079;-0,167;0,017;0,244;
20190809_155108;5,037;4,594;15,354;-0,469;-0,050;0,175;
20190809_155108;-2,921;13,439;12,833;0,082;0,124;0,071;
20190809_155108;-1,082;8,588;13,613;0,134;0,388;-0,075;
20190809_155108;1,070;9,527;14,217;-0,098;0,261;0,042;
20190809_155108;4,781;7,288;15,464;0,080;0,103;0,196;
20190809_155109;4,080;6,840;14,832;-0,296;0,022;0,238;
20190809_155109;1,154;4,089;6,416;0,175;0,271;0,007;
20190809_155109;1,463;3,783;7,865;0,022;0,275;-0,067;
20190809_155109;1,779;6,565;11,813;-0,077;0,238;-0,032;
20190809_155109;-3,560;12,148;12,024;0,038;0,207;-0,204;
20190809_155109;-0,783;7,140;6,479;0,340;0,088;-0,067;
20190809_155109;3,191;5,361;7,202;0,141;-0,077;0,010;
20190809_155109;5,250;4,101;11,801;-0,219;-0,140;0,079;
20190809_155109;3,838;6,246;15,411;-0,163;-0,052;0,001;
20190809_155109;-2,983;9,555;8,001;0,289;0,132;-0,171;
20190809_155110;1,781;6,309;5,152;0,276;-0,021;-0,053;
20190809_155110;3,840;2,057;5,638;-0,078;-0,109;0,048;
20190809_155110;1,393;4,041;9,213;-0,044;-0,048;-0,046;
20190809_155110;-0,081;1,896;2,847;0,052;0,104;-0,123;
20190809_155110;1,731;3,282;14,741;-0,295;0,012;-0,044;
20190809_155110;2,468;5,394;10,556;-0,094;0,145;-0,092;
20190809_155110;-0,273;7,302;9,495;0,076;0,039;-0,087;
20190809_155110;1,484;6,275;4,305;0,228;0,057;-0,118;
20190809_155110;0,888;3,517;0,761;0,217;-0,009;-0,105;
20190809_155111;1,777;3,474;1,879;0,169;0,002;-0,130;
20190809_155111;1,422;2,526;-0,524;0,129;-0,080;-0,033;
20190809_155111;1,777;4,281;4,219;0,215;-0,157;-0,133;
20190809_155111;2,164;6,761;12,572;-0,040;-0,206;-0,181;
20190809_155111;3,891;6,522;8,892;0,036;-0,188;-0,188;
20190809_155111;-0,019;3,625;5,667;0,061;-0,058;-0,204;
20190809_155111;0,407;0,891;-2,014;0,318;-0,068;-0,183;
20190809_155111;3,606;2,071;4,338;-0,069;-0,026;0,007;
20190809_155111;2,294;1,879;2,758;-0,016;-0,026;-0,062;
20190809_155111;0,836;0,287;-0,534;0,078;-0,163;-0,145;
20190809_155112;1,389;0,871;2,916;-0,208;-0,162;-0,097;
20190809_155112;0,467;2,916;8,916;-0,092;-0,107;-0,218;
20190809_155112;2,703;3,560;8,071;-0,102;-0,265;-0,117;
20190809_155112;1,501;6,448;11,981;-0,035;-0,219;-0,149;
20190809_155112;2,270;4,664;8,847;-0,045;-0,120;-0,173;
20190809_155112;1,908;6,103;13,345;-0,133;-0,002;-0,181;
20190809_155112;0,390;5,234;11,389;-0,152;0,022;-0,133;
20190809_155112;1,032;3,299;6,558;0,081;0,056;-0,101;
20190809_155112;2,842;4,166;12,866;-0,177;-0,006;0,056;
20190809_155113;1,750;4,173;8,416;-0,095;0,060;0,009;
20190809_155113;-1,314;3,982;1,923;0,256;-0,018;-0,053;
20190809_155113;3,342;5,930;9,756;0,062;-0,172;0,093;
20190809_155113;3,326;5,686;15,191;-0,119;-0,123;0,081;
20190809_155113;0,565;5,516;12,823;-0,149;-0,040;-0,023;
20190809_155113;1,369;3,065;6,088;0,117;0,034;-0,010;
20190809_155113;2,433;3,445;2,368;0,076;-0,005;0,098;
20190809_155113;4,841;2,193;-0,103;-0,195;0,371;-0,152;
20190809_155113;0,500;1,925;-1,317;0,363;0,054;0,057;
20190809_155113;1,788;0,828;-0,335;0,309;-0,651;0,471;
20190809_155114;4,573;4,717;13,822;-0,806;-0,671;0,694;
20190809_155114;-0,077;9,074;14,159;-0,193;0,081;0,114;
20190809_155114;1,374;8,674;10,338;0,074;0,475;-0,225;
20190809_155114;0,716;8,109;8,157;0,247;0,031;-0,031;
20190809_155114;2,253;2,480;7,037;-0,068;-0,087;0,082;
20190809_155114;2,957;5,033;7,312;-0,050;-0,031;0,095;
20190809_155114;0,651;5,258;7,266;-0,036;0,071;-0,016;
20190809_155114;2,253;4,913;8,009;-0,120;0,109;0,015;
20190809_155114;3,060;5,258;8,224;0,282;0,210;0,034;
20190809_155115;2,370;4,338;2,579;0,182;0,180;0,112;
20190809_155115;-0,850;4,889;2,258;0,176;0,318;-0,079;
20190809_155115;-0,189;2,298;0,488;0,224;0,221;-0,063;
20190809_155115;0,010;3,045;2,205;0,148;0,203;-0,039;
20190809_155115;-0,481;4,927;5,569;0,120;0,168;-0,075;
20190809_155115;-0,529;3,340;3,642;0,160;0,086;-0,003;
20190809_155115;-0,678;8,107;8,569;-0,126;0,051;-0,129;
20190809_155115;2,179;13,008;22,383;0,046;-0,324;0,176;
20190809_155115;3,237;6,989;7,645;0,231;-0,317;-0,100;
20190809_155115;1,319;4,310;7,908;-0,054;-0,054;-0,026;
20190809_155116;-0,936;5,274;6,033;0,149;-0,165;0,176;
20190809_155116;-1,798;0,752;1,451;-0,791;-0,138;0,077;
20190809_155116;0,187;2,169;7,008;-0,490;-0,258;0,131;
20190809_155116;1,049;3,390;7,209;0,028;0,344;0,361;
20190809_155116;0,227;4,262;9,093;0,058;-0,021;-0,170;
20190809_155116;0,982;-0,438;2,179;0,687;-0,115;-0,328;
20190809_155116;1,020;0,575;-2,377;0,544;-0,667;0,535;
20190809_155116;-0,534;7,125;0,685;0,504;-0,122;-0,070;
20190809_155116;0,034;5,600;5,543;0,233;0,031;-0,233;
20190809_155117;1,970;5,588;13,855;-0,056;0,147;-0,113;
20190809_155117;3,534;7,942;15,069;-0,293;-0,223;0,188;
20190809_155117;0,292;7,676;18,991;-0,056;-0,004;-0,023;
20190809_155117;0,400;0,702;-0,927;-0,100;0,033;0,081;
20190809_155117;1,207;7,855;10,824;-0,086;-0,053;0,042;
20190809_155117;-0,285;9,064;16,089;-0,024;-0,088;0,055;
20190809_155117;1,501;5,535;26,545;-0,218;0,098;-0,086;
20190809_155117;-0,491;13,630;28,735;0,042;0,210;0,340;
20190809_155117;0,596;0,462;7,654;-0,145;0,119;0,056;
20190809_155117;0,675;5,016;5,954;0,047;-0,003;0,098;
20190809_155118;-0,294;6,369;13,611;-0,245;0,325;-0,015;
20190809_155118;-0,388;10,640;23,624;0,115;0,175;0,120;
20190809_155118;0,350;0,615;-0,673;0,510;0,201;0,204;
20190809_155118;0,283;-0,393;-0,520;0,432;-1,180;-0,040;
20190809_155118;2,811;0,385;12,009;-0,585;-0,479;0,310;
20190809_155118;0,512;6,505;7,673;0,316;0,496;-0,323;
20190809_155118;0,376;4,609;1,559;0,258;0,177;-0,157;
20190809_155118;2,617;6,287;4,839;0,207;-0,742;-0,063;
20190809_155118;1,128;6,783;21,292;-0,354;-0,033;-0,108;
20190809_155119;2,923;2,330;6,440;-0,165;-0,034;-0,019;
20190809_155119;-1,120;4,884;0,974;0,139;1,717;-0,940;
20190809_155119;1,738;4,187;1,616;0,425;-0,108;-0,021;
20190809_155119;0,340;-0,105;-0,855;-0,005;-0,542;0,172;
20190809_155119;2,737;3,323;-0,467;-0,133;-0,331;0,108;
20190809_155119;-2,825;10,173;31,091;-0,079;0,126;0,077;
20190809_155119;-2,083;10,151;13,592;0,070;1,625;-1,034;
20190809_155119;-0,939;5,274;9,436;-0,178;-0,198;0,017;
20190809_155119;1,877;4,827;9,084;-0,085;-0,058;-0,010;
20190809_155120;2,806;6,744;17,128;-0,213;-0,038;0,081;
20190809_155120;-2,399;7,230;25,417;-0,487;0,486;-0,337;
20190809_155120;-0,797;6,122;18,335;-0,247;0,269;-0,100;
20190809_155120;1,125;6,136;13,278;-0,143;-0,082;0,019;
20190809_155120;2,586;4,216;12,033;-0,307;-0,034;-0,032;
20190809_155120;1,669;6,891;8,882;0,082;0,031;-0,068;
20190809_155120;-1,348;5,655;4,345;0,282;0,064;-0,104;
20190809_155120;2,184;3,120;0,215;0,172;0,008;0,068;
20190809_155120;3,275;3,721;4,870;0,110;0,030;0,160;
20190809_155120;1,987;5,375;8,430;0,116;-0,039;0,071;
20190809_155121;-0,287;8,768;12,632;-0,012;0,107;0,023;
20190809_155121;-2,516;9,067;20,578;-0,162;0,296;-0,080;
20190809_155121;1,128;3,905;15,830;-0,121;-0,124;0,162;
20190809_155121;0,977;7,092;29,899;-0,329;-0,162;0,028;
20190809_155121;-2,093;15,057;25,292;0,075;0,008;0,050;
20190809_155121;1,870;7,180;11,473;0,180;-0,525;0,474;
20190809_155121;1,585;2,184;-0,436;0,411;0,073;-0,181;
20190809_155121;3,608;1,475;1,688;0,373;0,203;0,105;
20190809_155121;4,096;1,319;15,919;-0,577;-0,434;0,271;
20190809_155121;1,951;3,151;16,910;-0,554;-0,003;0,125;
20190809_155122;1,367;2,923;9,476;-0,199;0,076;-0,007;
20190809_155122;2,892;2,377;3,141;0,095;-0,196;0,157;
20190809_155122;1,587;0,043;1,214;-0,086;-0,258;0,149;
20190809_155122;3,024;0,479;3,270;-0,038;-0,246;0,120;
20190809_155122;4,396;1,128;5,037;-0,373;-0,082;0,113;
20190809_155122;2,052;3,560;3,508;0,085;-0,124;0,189;
20190809_155122;-0,757;4,544;3,764;0,181;-0,025;-0,120;
20190809_155122;2,729;5,923;5,452;0,304;-0,001;-0,011;
20190809_155122;-0,283;1,891;2,282;0,067;-0,092;0,064;
20190809_155123;4,515;3,527;5,990;-0,022;0,015;0,134;
20190809_155123;4,673;6,804;21,665;0,178;0,236;0,061;
20190809_155123;-7,817;12,385;23,999;0,113;-0,096;-0,065;
20190809_155123;2,449;3,323;3,170;0,240;-0,642;0,744;
20190809_155123;1,025;2,030;5,188;0,124;-0,055;0,173;
20190809_155123;-1,053;-0,189;-1,470;0,410;-0,169;0,122;
20190809_155123;2,535;0,227;0,903;-0,237;-0,146;-0,093;
20190809_155123;4,199;3,055;5,641;-0,121;-0,151;0,113;
20190809_155123;0,666;7,029;6,026;0,231;-0,259;0,014;
20190809_155123;2,401;0,227;-1,460;0,237;-0,640;0,107;
20190809_155124;1,927;2,385;10,647;0,117;-0,020;0,124;
20190809_155124;2,600;2,693;5,997;-0,152;-0,005;0,052;
20190809_155124;7,523;2,198;19,024;-0,689;0,105;-0,152;
20190809_155124;0,474;3,587;25,290;-0,526;0,471;-0,068;
20190809_155124;-2,969;5,066;24,316;-0,318;0,329;-0,294;
20190809_155124;2,332;-0,809;1,293;-0,278;-0,087;0,276;
20190809_155124;1,240;2,203;14,095;-0,038;0,077;-0,055;
20190809_155124;3,505;1,216;5,741;-0,438;-0,331;0,207;
20190809_155124;4,760;4,925;8,305;0,178;-0,008;-0,129;
20190809_155125;-2,382;12,443;7,444;0,798;0,394;-0,555;
20190809_155125;-1,753;7,135;5,069;0,420;0,300;-0,291;
20190809_155125;-2,624;7,247;21,399;-0,220;-0,019;0,094;
20190809_155125;5,385;-0,340;15,907;-0,283;-0,230;0,294;
20190809_155125;-5,856;15,184;23,389;-0,057;0,411;-0,273;
20190809_155125;6,328;7,884;8,329;0,349;-0,135;0,560;
20190809_155125;0,867;-0,479;17,142;0,146;0,661;-0,177;
20190809_155125;3,627;0,596;5,957;-1,083;-0,872;0,295;
20190809_155125;1,448;0,029;0,792;0,302;-0,278;-0,042;
20190809_155126;-6,146;12,462;20,394;-0,146;1,017;-0,904;
20190809_155126;-2,375;11,018;5,425;0,721;0,356;-0,333;
20190809_155126;0,318;8,957;10,307;0,089;0,068;-0,155;
20190809_155126;2,830;5,411;8,231;-0,211;-0,155;0,107;
20190809_155126;-2,593;3,974;4,216;0,339;0,284;-0,147;
20190809_155126;0,302;7,587;5,191;0,393;0,438;-0,165;
20190809_155126;0,776;12,890;10,523;0,287;0,137;0,095;
20190809_155126;5,059;1,290;17,401;-0,600;1,027;0,122;
20190809_155126;-6,780;8,535;9,979;1,143;1,187;-0,695;
20190809_155126;1,556;11,679;7,463;0,555;0,178;0,222;
20190809_155127;0,761;7,860;12,481;0,116;-0,089;0,159;
20190809_155127;1,228;6,584;11,564;0,507;0,212;-0,184;
20190809_155127;1,724;5,756;4,618;0,280;-0,081;0,029;
20190809_155127;0,213;4,561;10,142;-0,008;-0,043;0,026;
20190809_155127;1,437;3,026;9,464;-0,084;0,058;0,015;
20190809_155127;2,014;3,989;10,372;-0,087;-0,115;0,174;
20190809_155127;2,296;3,266;5,607;-0,098;-0,056;0,148;
20190809_155127;2,148;2,057;-1,142;0,063;-0,050;0,240;
20190809_155127;3,850;2,557;2,933;-0,045;-0,088;0,253;
20190809_155128;2,473;2,552;5,212;-0,017;0,097;0,105;
20190809_155128;3,833;2,303;3,998;-0,028;-0,010;0,156;
20190809_155128;1,030;3,498;5,473;0,019;-0,067;0,011;
20190809_155128;2,116;5,279;6,199;0,004;-0,037;-0,037;
20190809_155128;2,014;5,717;11,107;-0,019;-0,047;-0,081;
20190809_155128;0,271;6,266;7,503;-0,014;-0,009;-0,112;
20190809_155128;1,513;3,785;2,772;0,249;0,010;-0,100;
20190809_155128;1,480;3,819;6,541;0,066;-0,128;0,041;
20190809_155128;1,760;3,737;8,734;-0,070;0,001;-0,037;
20190809_155128;1,597;3,931;5,710;0,084;0,050;-0,042;
20190809_155129;0,644;2,938;2,265;0,169;-0,152;0,040;
20190809_155129;0,594;2,662;2,495;0,099;-0,076;-0,033;
20190809_155129;1,080;5,514;10,302;-0,016;-0,088;-0,054;
20190809_155129;2,365;5,435;9,560;0,042;-0,104;-0,109;
20190809_155129;1,693;3,620;5,140;0,000;-0,072;-0,104;
20190809_155129;1,796;4,211;9,270;-0,082;0,081;-0,093;
20190809_155129;0,792;5,210;9,938;-0,106;0,212;-0,149;
20190809_155129;0,670;3,857;6,244;0,014;0,127;-0,058;
20190809_155129;0,996;3,792;6,148;-0,012;0,094;-0,087;
20190809_155130;1,415;4,111;8,861;0,026;0,041;-0,122;
20190809_155130;1,494;4,709;6,225;-0,094;0,088;-0,124;
20190809_155130;-0,711;4,697;9,589;-0,095;0,215;-0,167;
20190809_155130;-0,187;5,401;8,329;-0,044;0,258;-0,184;
20190809_155130;0,199;5,847;5,861;0,043;0,192;-0,209;
20190809_155130;0,678;3,417;8,973;0,017;0,077;-0,238;
20190809_155130;-4,173;7,355;9,227;0,112;-0,015;-0,413;
20190809_155130;1,310;5,650;9,172;-0,098;-0,386;-0,179;
20190809_155130;0,572;5,799;8,832;0,074;-0,436;-0,150;
20190809_155130;-4,080;3,919;5,315;0,161;-0,223;-0,255;
20190809_155131;-1,276;4,487;9,433;-0,082;-0,122;-0,046;
20190809_155131;-1,310;5,162;10,676;-0,151;0,008;0,143;
20190809_155131;-1,915;4,997;8,071;-0,029;0,285;0,032;
20190809_155131;0,759;5,538;9,242;0,020;0,227;0,049;
20190809_155131;-1,233;5,839;9,900;-0,030;0,186;-0,050;
20190809_155131;-2,157;8,250;10,997;0,108;0,214;-0,049;
20190809_155131;-1,465;4,685;10,482;-0,108;-0,251;0,089;
20190809_155131;-0,989;5,902;5,128;0,010;-0,074;-0,011;
20190809_155131;-0,297;3,163;7,046;-0,090;-0,077;0,185;
20190809_155132;-0,055;5,138;5,849;0,061;-0,141;0,016;
20190809_155132;-0,984;4,630;8,377;-0,016;0,008;-0,083;
20190809_155132;-0,668;4,779;7,987;0,008;-0,064;0,129;
20190809_155132;-3,220;5,219;7,695;0,031;-0,001;0,202;
20190809_155132;-1,087;5,849;11,133;-0,060;0,245;0,264;
20190809_155132;-1,307;4,863;9,565;0,034;0,319;0,278;
20190809_155132;-3,972;4,652;8,174;0,032;0,234;0,052;
20190809_155132;2,121;5,160;9,060;-0,119;-0,117;0,269;
20190809_155132;-0,852;5,078;7,439;0,096;0,029;0,050;
20190809_155132;-0,709;4,719;10,376;0,036;0,014;0,063;
20190809_155133;-0,871;5,456;10,748;-0,056;-0,038;0,103;
20190809_155133;1,312;6,048;6,314;-0,045;-0,039;0,032;
20190809_155133;0,124;4,535;7,611;0,108;0,047;-0,017;
20190809_155133;-2,207;6,395;13,934;0,093;-0,018;-0,026;
20190809_155133;-0,395;4,255;10,652;0,168;0,190;0,057;
20190809_155133;-1,839;5,344;7,839;0,273;0,441;0,076;
20190809_155133;-3,740;5,444;2,818;0,423;0,430;-0,040;
20190809_155133;0,201;5,981;6,804;0,178;0,045;0,051;
20190809_155133;0,694;6,098;6,369;0,026;-0,053;-0,170;
20190809_155134;-1,243;2,464;5,322;-0,159;-0,421;-0,126;
20190809_155134;-1,731;2,061;7,312;0,016;-0,156;-0,082;
20190809_155134;-2,253;3,828;5,440;0,237;-0,059;-0,111;
20190809_155134;-0,510;4,403;8,497;-0,031;-0,054;0,056;
20190809_155134;1,034;3,790;6,225;0,021;-0,073;0,152;
20190809_155134;-0,441;5,052;8,871;0,019;0,144;0,022;
20190809_155134;-1,587;4,238;9,158;-0,031;0,155;0,157;
20190809_155134;1,755;4,020;5,531;0,040;0,086;0,052;
20190809_155134;0,883;2,495;6,096;0,094;0,055;-0,088;
20190809_155134;0,757;4,427;7,860;-0,014;-0,136;-0,237;
20190809_155135;-1,176;6,378;6,472;0,122;-0,201;-0,431;
20190809_155135;1,226;5,016;4,369;0,052;-0,341;-0,281;
20190809_155135;-0,503;3,584;7,592;-0,063;-0,203;-0,238;
20190809_155135;1,326;5,466;9,155;-0,087;-0,077;-0,162;
20190809_155135;-0,074;4,949;9,634;0,013;-0,066;-0,165;
20190809_155135;1,961;4,434;7,743;-0,037;-0,031;-0,093;
20190809_155135;-0,979;3,457;6,369;0,054;-0,050;-0,129;
20190809_155135;0,716;5,641;7,360;-0,007;-0,039;-0,166;
20190809_155135;-0,050;3,541;7,786;-0,014;-0,077;-0,200;
20190809_155136;0,029;4,927;7,274;0,061;-0,153;-0,089;
20190809_155136;-1,013;4,207;9,031;0,031;-0,125;-0,121;
20190809_155136;0,323;5,069;7,908;-0,045;-0,101;-0,135;
20190809_155136;1,123;5,320;10,439;-0,105;-0,169;-0,035;
20190809_155136;0,373;4,891;9,007;-0,019;-0,077;-0,046;
20190809_155136;-0,749;4,154;9,007;0,050;-0,067;-0,001;
20190809_155136;-0,362;4,010;8,689;-0,019;0,022;0,057;
20190809_155136;0,323;4,293;9,510;-0,051;0,064;0,061;
20190809_155136;0,285;3,759;6,400;0,086;0,140;0,011;
20190809_155136;0,297;3,215;3,038;0,061;0,051;0,005;
20190809_155137;0,189;5,167;12,503;-0,099;0,015;-0,090;
20190809_155137;0,943;5,614;8,353;0,002;-0,101;-0,013;
20190809_155137;-0,393;4,319;7,254;-0,100;-0,139;-0,040;
20190809_155137;0,840;5,262;13,041;-0,038;-0,031;-0,099;
20190809_155137;-2,741;3,407;7,693;0,066;-0,046;-0,041;
20190809_155137;0,951;5,926;5,454;0,128;0,029;0,067;
20190809_155137;-0,199;3,105;8,650;-0,166;0,030;0,096;
20190809_155137;-0,098;3,560;7,616;0,045;0,123;0,002;
20190809_155137;-0,424;4,604;6,797;0,110;0,158;-0,005;
20190809_155138;0,651;4,879;10,108;-0,147;0,007;0,009;
20190809_155138;1,630;3,881;5,329;0,009;-0,133;-0,102;
20190809_155138;3,294;4,288;10,017;-0,014;-0,079;-0,310;
20190809_155138;1,171;4,290;10,144;0,040;-0,305;-0,361;
20190809_155138;0,785;3,644;9,354;-0,052;-0,400;-0,408;
20190809_155138;-0,323;2,825;9,227;0,053;-0,345;-0,310;
20190809_155138;-0,845;4,259;8,061;-0,034;-0,209;-0,166;
20190809_155138;-2,337;4,204;8,327;-0,110;-0,090;-0,028;
20190809_155138;0,261;6,369;11,473;-0,015;0,033;0,012;
20190809_155138;-0,694;1,946;7,108;0,096;0,017;0,132;
20190809_155139;1,628;5,756;10,937;-0,160;0,024;0,147;
20190809_155139;0,321;4,870;7,151;0,109;0,121;0,051;
20190809_155139;1,458;5,071;8,985;0,077;0,137;0,018;
20190809_155139;0,634;5,569;13,831;0,027;-0,008;0,130;
20190809_155139;-0,187;3,292;7,827;0,321;0,045;0,050;
20190809_155139;-0,764;6,074;8,059;0,261;0,135;0,021;
20190809_155139;-1,025;3,970;8,480;0,110;0,082;0,036;
20190809_155139;1,219;4,681;6,086;0,266;0,320;0,164;
20190809_155139;-0,649;6,100;6,594;0,139;0,415;0,032;
20190809_155140;-1,978;5,686;10,154;-0,184;0,240;0,106;
20190809_155140;1,887;2,899;8,576;-0,100;0,202;-0,052;
20190809_155140;0,373;4,815;7,956;-0,164;-0,104;-0,105;
20190809_155140;-1,341;4,654;6,826;-0,178;-0,175;-0,327;
20190809_155140;5,021;4,238;3,948;0,051;-0,166;-0,529;
20190809_155140;-1,030;4,865;8,859;0,043;-0,320;-0,813;
20190809_155140;5,528;3,335;8,430;0,049;-0,608;-0,809;
20190809_155140;-2,715;4,164;6,800;0,133;-0,559;-0,951;
20190809_155140;-0,457;4,640;8,569;0,096;-0,448;-0,678;
20190809_155141;-4,980;3,759;7,214;0,119;0,015;-0,462;
20190809_155141;1,824;5,224;8,598;0,006;0,110;-0,280;
20190809_155141;2,107;5,329;9,064;-0,045;0,097;-0,449;
20190809_155141;2,497;4,456;9,270;0,024;-0,092;-0,766;
20190809_155141;2,081;3,177;10,034;0,241;-0,438;-1,043;
20190809_155141;-2,538;3,259;11,468;0,257;-0,532;-1,221;
20190809_155141;2,796;4,544;9,342;0,239;-0,686;-0,989;
20190809_155141;-2,186;3,460;8,559;0,260;-0,743;-1,230;
20190809_155141;2,708;3,757;9,043;0,323;-1,032;-1,053;
20190809_155141;-2,528;4,386;6,768;0,405;-0,962;-1,056;
20190809_155142;-4,372;3,915;8,487;0,026;-0,517;-0,455;
20190809_155142;0,764;6,464;9,024;-0,072;-0,194;-0,059;
20190809_155142;0,589;4,592;9,455;-0,078;-0,056;0,015;
20190809_155142;0,725;6,450;6,187;0,092;-0,040;-0,279;
20190809_155142;-6,167;6,232;6,455;-0,019;-0,198;-0,597;
20190809_155142;2,619;5,071;9,249;0,034;-0,036;-0,117;
20190809_155142;-2,097;4,101;0,888;0,271;-0,202;0,050;
20190809_155142;-1,626;3,527;1,049;0,276;-0,303;-0,225;
20190809_155142;-0,414;5,593;8,289;0,074;0,045;0,137;
20190809_155143;0,905;4,547;9,373;-0,162;0,112;0,083;
20190809_155143;0,364;6,792;6,907;-0,007;0,122;0,073;
20190809_155143;4,135;6,072;7,398;0,141;-0,004;0,000;
20190809_155143;-4,302;4,887;12,131;-0,324;-0,172;-0,140;
20190809_155143;2,179;5,583;7,113;0,026;-0,161;0,031;
20190809_155143;-1,398;4,053;8,279;-0,048;-0,164;0,066;
20190809_155143;-1,240;5,990;16,606;-0,231;-0,132;0,224;
20190809_155143;0,048;6,859;2,634;0,281;0,160;0,293;
20190809_155143;3,316;2,030;5,921;0,038;0,119;0,307;
20190809_155143;-0,742;5,231;9,735;0,008;0,274;0,161;
20190809_155144;-2,801;4,875;7,980;0,162;0,312;0,128;
20190809_155144;0,048;3,824;2,497;0,159;0,340;0,240;
20190809_155144;-0,239;4,293;7,793;0,143;0,121;0,146;
20190809_155144;0,994;5,430;12,586;-0,234;0,011;0,055;
20190809_155144;-1,085;4,386;6,385;-0,049;0,121;-0,079;
20190809_155144;-0,294;5,339;7,350;-0,014;0,156;-0,036;
20190809_155144;2,519;4,903;8,468;-0,024;0,255;-0,077;
20190809_155144;-0,503;4,860;11,890;-0,050;0,212;-0,260;
20190809_155144;1,458;6,814;8,188;0,081;-0,136;-0,292;
20190809_155145;-0,754;3,266;8,701;0,134;-0,299;-0,312;
20190809_155145;-1,300;4,882;8,296;0,190;-0,326;-0,151;
20190809_155145;1,008;5,535;9,333;-0,008;-0,295;-0,048;
20190809_155145;-0,912;3,304;8,428;0,022;-0,167;-0,070;
20190809_155145;0,472;4,477;7,779;-0,094;-0,118;0,026;
20190809_155145;-1,049;5,349;7,779;-0,072;0,010;0,094;
20190809_155145;1,185;4,781;9,610;-0,022;-0,026;0,090;
20190809_155145;-1,120;4,592;8,705;-0,031;-0,027;0,074;
20190809_155145;-0,476;5,461;8,978;0,085;-0,015;0,107;
20190809_155145;1,618;5,725;10,745;-0,103;0,014;0,156;
20190809_155146;1,137;3,230;9,064;-0,034;0,063;0,097;
20190809_155146;0,912;4,508;7,159;-0,013;0,266;-0,013;
20190809_155146;0,474;6,639;10,568;0,119;0,199;-0,084;
20190809_155146;0,687;4,233;7,427;0,034;0,024;-0,120;
20190809_155146;-1,247;3,836;6,479;0,076;-0,031;-0,098;
20190809_155146;-0,204;4,590;6,335;0,019;-0,092;-0,138;
20190809_155146;-1,389;4,005;2,344;0,084;-0,054;-0,108;
20190809_155146;-0,426;2,325;2,777;0,262;0,033;-0,054;
20190809_155146;-0,496;5,942;9,242;0,002;0,064;-0,063;
20190809_155147;0,821;5,365;10,087;0,122;0,084;-0,021;
20190809_155147;-2,224;2,239;2,701;0,157;0,075;-0,175;
20190809_155147;0,749;5,277;7,135;-0,025;-0,248;-0,060;
20190809_155147;0,101;6,079;11,009;0,005;-0,185;-0,067;
20190809_155147;0,893;2,938;9,663;-0,226;-0,204;0,030;
20190809_155147;0,785;5,504;13,348;-0,265;-0,144;0,104;
20190809_155147;-0,438;5,593;9,448;-0,250;-0,034;0,145;
20190809_155147;0,385;2,885;11,741;-0,294;-0,008;0,068;
20190809_155147;-0,201;4,503;7,760;-0,048;0,017;0,058;
20190809_155147;0,278;5,511;7,149;-0,196;-0,063;0,018;
20190809_155148;-0,903;4,228;2,648;0,282;0,021;-0,020;
20190809_155148;-0,321;2,789;7,389;-0,003;-0,137;0,006;
20190809_155148;-0,620;1,195;0,354;0,223;0,071;-0,016;
20190809_155148;-2,428;6,031;6,079;0,102;0,021;-0,123;
20190809_155148;0,263;4,669;6,563;-0,054;-0,057;0,071;
20190809_155148;-1,465;8,478;3,682;0,315;0,119;0,042;
20190809_155148;-0,072;4,125;3,955;0,300;0,149;0,042;
20190809_155148;-0,496;3,201;6,357;0,124;0,136;0,027;
20190809_155148;1,353;5,425;5,528;0,126;0,142;0,047;
20190809_155149;-1,168;5,368;6,424;0,090;0,208;-0,177;
20190809_155149;1,460;5,171;9,048;-0,046;-0,005;-0,081;
20190809_155149;-1,044;3,615;6,922;0,054;-0,075;-0,106;
20190809_155149;-0,759;5,449;11,349;-0,184;-0,092;-0,032;
20190809_155149;0,807;6,567;14,188;-0,130;0,011;-0,116;
20190809_155149;0,546;3,508;7,106;-0,004;-0,022;-0,047;
20190809_155149;0,874;5,001;6,136;0,145;-0,035;-0,163;
20190809_155149;-0,646;5,018;3,883;0,050;-0,115;-0,026;
20190809_155149;-0,974;4,243;9,191;-0,139;0,010;-0,036;
20190809_155149;1,494;4,841;10,089;-0,019;0,000;0,007;
20190809_155150;0,163;5,444;8,442;0,098;-0,002;-0,051;
20190809_155150;1,714;4,456;12,028;-0,036;-0,218;-0,129;
20190809_155150;-0,848;5,337;7,705;-0,003;-0,117;-0,043;
20190809_155150;-1,082;4,741;8,519;0,049;-0,007;-0,091;
20190809_155150;0,651;3,888;7,556;0,018;0,012;-0,091;
20190809_155150;-0,840;3,989;1,496;0,029;0,038;0,003;
20190809_155150;-0,618;5,306;9,160;-0,034;0,007;-0,059;
20190809_155150;-0,826;4,214;8,842;-0,113;-0,003;0,013;
20190809_155150;-0,402;6,021;9,828;-0,056;-0,095;-0,017;
20190809_155151;0,350;6,512;12,713;-0,349;-0,123;0,042;
20190809_155151;0,658;6,127;10,072;-0,034;0,070;-0,097;
20190809_155151;1,152;3,349;8,408;-0,056;-0,070;-0,033;
20190809_155151;-0,201;3,824;8,107;-0,129;0,011;-0,126;
20190809_155151;-0,065;4,729;5,164;0,000;-0,038;-0,107;
20190809_155151;-1,460;3,496;3,093;0,150;-0,033;-0,038;
20190809_155151;-0,840;4,642;5,437;0,199;0,039;-0,036;
20190809_155151;-0,117;5,088;4,563;0,265;0,027;-0,047;
20190809_155151;-1,551;4,044;5,306;0,059;0,034;-0,151;
20190809_155151;0,960;5,574;8,483;-0,017;-0,095;-0,104;
20190809_155152;-0,785;4,128;10,987;-0,175;-0,086;-0,062;
20190809_155152;0,309;6,108;13,970;-0,046;-0,005;-0,043;
20190809_155152;-0,855;4,264;9,663;-0,309;0,010;-0,006;
20190809_155152;1,144;4,420;5,358;0,108;0,002;-0,043;
20190809_155152;0,967;4,252;13,604;-0,413;-0,116;0,040;
20190809_155152;-0,795;2,911;2,701;-0,037;-0,138;-0,020;
20190809_155152;0,034;4,719;3,124;0,255;-0,001;-0,009;
20190809_155152;2,342;3,881;3,349;0,069;-0,057;0,033;
20190809_155152;-1,092;5,248;14,243;-0,139;0,029;-0,104;
20190809_155153;0,845;5,095;11,607;-0,236;0,077;-0,076;
20190809_155153;0,199;4,539;8,147;0,058;0,073;-0,118;
20190809_155153;0,172;5,224;5,904;-0,007;0,057;-0,117;
20190809_155153;0,431;5,004;5,643;0,021;-0,048;-0,227;
20190809_155153;-0,833;3,270;3,352;0,131;-0,155;-0,170;
20190809_155153;-1,176;3,704;6,630;0,014;-0,149;-0,079;
20190809_155153;0,017;8,672;14,157;0,303;-0,057;-0,021;
20190809_155153;0,548;3,979;13,130;-0,110;-0,320;-0,026;
20190809_155153;-1,626;7,008;12,608;0,115;-0,104;-0,058;
20190809_155153;0,991;3,656;13,700;-0,367;-0,142;0,196;
20190809_155154;1,228;4,266;3,486;-0,002;0,048;0,115;
20190809_155154;-0,249;5,476;13,611;-0,086;0,124;-0,022;
20190809_155154;0,204;4,216;14,643;-0,318;0,054;-0,014;
20190809_155154;-0,338;6,141;16,235;-0,286;-0,040;0,026;
20190809_155154;0,599;3,498;4,302;0,017;0,034;-0,041;
20190809_155154;-0,840;3,486;2,686;0,194;-0,035;-0,063;
20190809_155154;1,398;4,480;2,085;0,187;-0,181;0,012;
20190809_155154;-0,812;5,076;6,065;0,209;-0,071;-0,069;
20190809_155154;1,434;5,169;8,825;0,040;-0,091;-0,082;
20190809_155155;-0,735;4,884;3,029;0,193;-0,060;-0,054;
20190809_155155;0,548;5,128;3,716;0,183;-0,020;0,076;
20190809_155155;-1,563;4,956;7,776;-0,036;0,121;0,077;
20190809_155155;-0,690;4,954;3,194;0,286;0,196;0,038;
20190809_155155;0,474;4,750;9,850;-0,018;0,028;0,005;
20190809_155155;-0,124;5,758;10,625;0,004;-0,100;-0,042;
20190809_155155;0,153;5,088;5,318;0,052;-0,157;0,048;
20190809_155155;-0,486;4,633;6,883;0,107;0,011;0,097;
20190809_155155;0,678;2,583;-0,101;0,169;0,052;0,132;
20190809_155155;-0,721;3,943;6,347;0,207;0,130;-0,040;
20190809_155156;0,838;4,937;4,348;0,035;0,131;0,022;
20190809_155156;-1,951;5,109;11,619;0,089;0,170;-0,030;
20190809_155156;-0,347;5,569;8,945;0,000;0,071;-0,076;
20190809_155156;0,601;3,259;4,798;0,127;-0,047;-0,001;
20190809_155156;-0,589;3,505;10,563;-0,186;-0,096;-0,059;
20190809_155156;-1,781;6,924;16,252;-0,076;-0,230;0,051;
20190809_155156;-0,893;4,104;5,885;0,173;-0,072;0,090;
20190809_155156;0,014;5,315;8,535;0,061;0,002;0,169;
20190809_155156;-0,359;2,629;5,239;-0,094;0,155;0,213;
20190809_155157;-0,002;6,151;8,487;-0,121;0,349;0,171;
20190809_155157;2,131;5,504;9,402;0,069;0,374;0,081;
20190809_155157;0,038;4,551;4,841;0,200;0,080;-0,264;
20190809_155157;0,637;3,883;5,818;0,020;-0,129;-0,152;
20190809_155157;-2,212;4,247;0,187;0,325;-0,132;-0,137;
20190809_155157;-0,697;7,286;13,063;0,090;-0,046;0,056;
20190809_155157;-0,749;5,205;7,676;0,078;0,062;0,040;
20190809_155157;-0,273;5,306;5,933;0,033;0,131;0,209;
20190809_155157;1,264;5,801;3,577;0,214;0,238;-0,009;
20190809_155157;-2,593;5,727;12,661;0,099;0,196;-0,140;
20190809_155158;8,140;6,732;17,116;0,063;-0,051;0,160;
20190809_155158;-0,429;7,920;12,572;0,022;-0,223;-0,128;
20190809_155158;-0,041;2,986;7,815;0,108;-0,185;-0,096;
20190809_155158;-5,042;6,974;7,637;0,255;-0,104;-0,080;
20190809_155158;0,180;4,970;3,158;0,259;-0,167;0,176;
20190809_155158;-0,888;2,373;1,077;0,309;0,156;0,170;
20190809_155158;1,326;9,512;7,175;0,632;0,560;-0,112;
20190809_155158;0,354;3,543;11,703;-0,045;0,253;-0,101;
20190809_155158;-0,503;4,384;7,223;-0,125;0,111;-0,047;
20190809_155159;-0,292;5,571;5,332;0,127;0,156;-0,139;
20190809_155159;0,113;4,259;7,635;-0,056;-0,091;-0,035;
20190809_155159;0,328;4,046;3,349;0,181;-0,181;-0,059;
20190809_155159;0,893;5,528;10,530;0,049;-0,363;0,019;
20190809_155159;-1,786;4,820;7,894;0,100;-0,056;0,060;
20190809_155159;-1,300;1,444;-1,429;-0,274;-0,378;0,444;
20190809_155159;0,745;4,085;5,492;0,027;0,245;0,184;
20190809_155159;-0,204;5,437;9,634;0,036;0,288;0,082;
20190809_155159;1,590;1,834;15,179;-0,468;-0,206;0,116;
20190809_155200;-0,340;5,380;8,624;0,146;-0,089;-0,080;
20190809_155200;2,351;1,532;-0,836;0,604;-0,368;0,160;
20190809_155200;-0,187;0,915;5,839;-0,095;-0,222;0,083;
20190809_155200;-1,642;4,396;5,119;-0,175;-0,124;0,089;
20190809_155200;-2,033;3,644;1,506;0,340;0,262;0,187;
20190809_155200;0,373;3,294;9,522;-0,138;0,163;0,284;
20190809_155200;0,141;3,701;4,008;-0,182;0,115;0,206;
20190809_155200;-0,280;2,449;0,271;0,356;0,276;0,076;
20190809_155200;0,646;5,239;-1,719;1,060;0,098;0,043;
20190809_155200;4,053;1,911;20,590;-0,561;0,909;0,279;
20190809_155201;0,711;3,752;3,527;0,278;0,048;-0,057;
20190809_155201;-0,426;8,339;12,230;0,703;-0,118;0,124;
20190809_155201;1,300;-1,611;6,845;-2,650;-0,320;-0,309;
20190809_155201;2,849;0,527;14,576;-1,195;-0,342;-0,041;
20190809_155201;-0,539;2,002;0,855;0,075;-0,025;0,154;
20190809_155201;1,820;6,182;8,250;-0,064;-0,055;0,070;
20190809_155201;-0,318;4,017;6,029;-0,092;-0,136;0,045;
20190809_155201;0,192;4,803;4,626;0,094;-0,090;0,066;
20190809_155201;0,577;4,353;5,140;0,136;0,049;0,070;
20190809_155202;-1,499;2,641;7,891;0,054;0,060;0,057;
20190809_155202;0,093;3,926;2,397;0,033;0,084;0,117;
20190809_155202;-1,279;6,134;7,513;-0,129;-0,017;0,109;
20190809_155202;-0,838;4,432;5,456;-0,248;-0,184;0,304;
20190809_155202;-2,236;6,244;3,898;0,231;0,148;0,105;
20190809_155202;3,153;5,859;24,799;-0,464;-0,067;0,161;
20190809_155202;1,513;1,767;11,720;-1,538;0,563;-0,197;
20190809_155202;2,279;3,091;9,589;-0,105;0,170;0,130;
20190809_155202;-0,615;3,814;2,875;0,022;0,155;0,059;
20190809_155203;-0,661;0,493;-2,028;0,413;0,315;-0,015;
20190809_155203;1,470;0,546;-1,049;0,477;-0,235;0,394;
20190809_155203;1,338;4,635;19,783;-1,190;-0,151;0,074;
20190809_155203;-2,988;4,319;2,263;0,173;0,115;-0,137;
20190809_155203;2,157;4,398;7,472;-0,304;-0,317;0,032;
20190809_155203;-2,047;5,021;7,915;0,061;0,021;-0,092;
20190809_155203;1,970;3,840;11,875;0,037;-0,119;0,111;
20190809_155203;1,030;5,313;5,562;0,114;0,076;0,119;
20190809_155203;-0,589;1,283;-1,650;0,363;0,044;0,224;
20190809_155203;3,199;4,930;2,078;0,124;-0,046;0,165;
20190809_155204;0,881;5,152;7,649;0,103;-0,128;-0,041;
20190809_155204;-2,696;4,578;8,030;0,199;-0,139;-0,092;
20190809_155204;-2,049;5,514;11,131;-0,155;-0,213;0,061;
20190809_155204;-3,282;5,485;14,672;-0,159;0,039;0,160;
20190809_155204;-1,022;4,190;11,277;-0,176;0,065;0,187;
20190809_155204;3,089;4,973;8,736;0,097;0,139;0,194;
20190809_155204;-2,863;3,587;7,776;0,151;0,284;0,017;
20190809_155204;0,520;4,185;7,508;-0,012;0,111;-0,025;
20190809_155204;1,800;3,838;7,175;-0,112;-0,038;0,092;
20190809_155204;-3,419;5,205;7,484;0,006;-0,063;0,031;
20190809_155205;1,750;5,318;6,345;0,012;-0,001;0,113;
20190809_155205;0,189;4,408;11,396;-0,331;0,057;0,039;
20190809_155205;1,537;4,901;5,868;-0,003;-0,038;-0,090;
20190809_155205;-0,548;5,883;6,539;0,227;-0,117;-0,030;
20190809_155205;-1,597;5,265;13,771;0,020;-0,063;0,026;
20190809_155205;-0,515;3,232;5,868;-0,020;0,029;0,196;
20190809_155205;-0,321;3,503;2,097;0,194;0,211;0,158;
20190809_155205;-1,338;3,824;4,290;0,291;0,189;0,041;
20190809_155205;1,362;5,080;10,731;-0,117;0,043;0,107;
20190809_155206;-0,536;4,345;8,325;-0,024;0,154;-0,111;
20190809_155206;0,903;5,413;8,969;-0,015;-0,012;-0,032;
20190809_155206;0,567;5,179;14,492;-0,065;-0,025;-0,069;
20190809_155206;-0,031;6,060;13,075;-0,206;-0,224;0,018;
20190809_155206;-1,140;3,826;6,541;0,043;-0,104;0,070;
20190809_155206;-1,817;5,021;7,937;0,125;0,084;0,161;
20190809_155206;0,244;4,494;10,259;-0,039;0,078;0,158;
20190809_155206;2,284;4,511;6,984;-0,040;0,077;0,150;
20190809_155206;0,503;4,568;11,487;-0,147;0,057;-0,069;
20190809_155206;-1,288;5,859;13,163;-0,394;-0,144;-0,032;
20190809_155207;-0,867;5,646;11,301;0,191;0,122;-0,013;
20190809_155207;0,883;4,245;8,301;-0,077;-0,060;0,055;
20190809_155207;-0,721;4,638;6,232;-0,007;-0,036;0,076;
20190809_155207;-1,484;3,785;4,618;0,133;0,104;0,051;
20190809_155207;-0,761;3,510;9,201;-0,099;-0,032;0,138;
20190809_155207;0,043;4,508;6,618;-0,221;0,013;0,131;
20190809_155207;0,809;4,302;3,864;0,057;0,115;0,082;
20190809_155207;-0,043;2,543;2,617;0,159;0,133;-0,009;
20190809_155207;0,120;4,930;8,157;0,158;0,243;-0,117;
20190809_155208;-0,340;7,867;11,052;-0,096;0,021;-0,059;
20190809_155208;-0,273;5,456;14,030;-0,114;-0,131;0,008;
20190809_155208;0,723;8,794;37,002;-0,507;-0,148;-0,104;
20190809_155208;-0,781;3,180;-1,032;1,838;0,359;-0,635;
20190809_155208;4,930;0,840;23,322;-0,924;1,591;0,134;
20190809_155208;3,603;6,627;-1,923;2,527;-0,391;0,516;
20190809_155208;2,456;4,918;13,807;0,613;0,369;-0,244;
20190809_155208;-0,608;-0,069;-1,697;1,232;0,332;-0,187;
20190809_155208;1,204;10,120;13,216;0,651;-0,145;0,237;
20190809_155208;-0,426;8,964;9,776;0,124;0,052;-0,038;
20190809_155209;-1,506;0,328;-1,334;0,376;0,138;-0,275;
20190809_155209;-0,328;1,446;-0,510;0,288;-0,227;0,106;
20190809_155209;-3,170;7,537;13,230;-0,043;-0,051;0,158;
20190809_155209;-0,951;6,517;5,104;-0,374;0,144;0,048;
20190809_155209;1,113;3,613;8,739;0,103;0,224;0,115;
20190809_155209;0,996;5,993;10,058;-0,187;0,251;0,054;
20190809_155209;0,010;4,214;6,237;0,075;0,156;-0,081;
20190809_155209;0,450;3,929;10,781;0,087;0,031;-0,066;
20190809_155209;-1,068;2,859;0,189;0,146;-0,075;-0,086;
20190809_155210;-2,198;3,577;0,089;0,590;-0,214;-0,154;
20190809_155210;-0,745;2,631;5,181;0,061;0,022;0,062;
20190809_155210;-1,063;5,835;10,482;-0,004;0,076;-0,019;
20190809_155210;1,008;5,231;12,862;-0,216;0,055;0,047;
20190809_155210;-0,958;2,289;1,736;0,037;0,158;-0,027;
20190809_155210;-1,056;5,318;7,755;0,042;0,090;-0,039;
20190809_155210;-1,006;0,606;-1,324;0,928;-0,151;-0,125;
20190809_155210;-0,541;3,326;3,084;0,991;-0,195;-0,112;
20190809_155210;1,618;2,859;11,004;-0,002;-0,152;-0,111;
20190809_155210;-2,078;4,164;1,966;0,715;0,133;-0,101;
20190809_155211;-0,151;1,671;4,547;-0,171;-0,141;0,130;
20190809_155211;0,426;6,057;15,601;-0,069;0,055;0,045;
20190809_155211;0,702;6,409;19,127;-0,520;0,023;0,186;
20190809_155211;0,553;8,033;10,209;0,329;0,261;0,024;
20190809_155211;0,419;2,296;3,050;0,201;-0,020;-0,003;
20190809_155211;2,277;3,050;6,773;-0,056;-0,214;0,079;
20190809_155211;-1,779;5,997;12,340;0,046;0,054;-0,047;
20190809_155211;0,970;6,270;10,738;-0,141;0,026;0,049;
20190809_155211;0,740;2,993;1,374;0,189;0,032;-0,006;
20190809_155212;-2,782;12,637;29,564;0,413;0,126;-0,111;
20190809_155212;-0,874;7,293;23,822;-0,408;0,528;-0,219;
20190809_155212;1,374;5,502;16,257;-0,965;0,025;0,131;
20190809_155212;2,404;4,118;11,710;-0,168;-0,097;0,073;
20190809_155212;-0,548;5,239;16,783;-0,285;0,096;-0,015;
20190809_155212;-1,389;3,000;4,855;-0,990;0,391;0,025;
20190809_155212;1,405;5,013;13,422;-0,130;0,138;-0,048;
20190809_155212;1,401;3,644;16,618;-0,284;0,058;-0,085;
20190809_155212;0,785;4,319;3,716;-0,546;-0,117;0,245;
20190809_155213;0,057;4,700;4,853;0,112;0,084;-0,097;
20190809_155213;-0,225;3,879;3,802;0,326;0,058;-0,089;
20190809_155213;-0,615;3,314;3,338;0,287;-0,025;-0,072;
20190809_155213;-0,271;4,642;6,383;0,152;-0,126;0,034;
20190809_155213;-0,881;4,784;5,643;0,169;0,051;0,047;
20190809_155213;1,279;5,954;13,024;-0,405;-0,046;0,076;
20190809_155213;-0,553;3,639;6,563;0,205;0,086;0,016;
20190809_155213;-0,318;4,417;2,042;0,221;0,155;-0,033;
20190809_155213;0,108;5,401;12,311;-0,409;-0,198;0,121;
20190809_155213;-0,685;5,083;6,462;0,271;0,079;-0,058;
20190809_155214;-1,559;3,381;1,259;-0,155;-0,216;0,045;
20190809_155214;0,441;5,176;8,418;0,068;-0,073;0,013;
20190809_155214;0,165;2,255;-1,053;0,392;-0,050;0,123;
20190809_155214;0,400;5,466;12,608;-0,637;-0,148;0,099;
20190809_155214;-1,994;6,486;4,518;-0,069;0,066;0,018;
20190809_155214;-0,299;2,009;2,957;0,110;0,078;-0,051;
20190809_155214;2,049;6,323;19,065;0,145;-0,197;0,091;
20190809_155214;0,136;6,529;9,237;0,223;0,000;-0,007;
20190809_155214;-1,470;4,925;16,453;0,115;0,005;-0,020;
20190809_155215;-1,058;3,428;4,077;-0,390;-0,172;0,112;
20190809_155215;-0,204;4,408;1,937;0,357;0,233;0,073;
20190809_155215;1,978;4,812;13,245;-0,308;-0,020;0,120;
20190809_155215;-0,721;6,048;3,929;0,639;0,279;-0,155;
20190809_155215;0,615;2,909;10,300;-0,163;0,055;-0,066;
20190809_155215;0,189;4,587;2,428;0,092;0,025;0,034;
20190809_155215;-0,821;5,447;8,236;-0,168;-0,012;-0,020;
20190809_155215;-0,201;4,329;8,669;0,137;0,096;0,077;
20190809_155215;-0,132;4,216;9,203;0,076;0,149;0,000;
20190809_155216;0,790;4,657;8,222;-0,006;-0,055;-0,065;
20190809_155216;-1,250;4,118;5,533;0,042;-0,096;-0,092;
20190809_155216;0,788;5,092;6,917;-0,035;-0,189;0,009;
20190809_155216;-1,504;4,527;6,632;0,300;0,072;-0,103;
20190809_155216;-0,910;4,566;6,172;0,113;0,006;0,056;
20190809_155216;-3,182;4,702;8,325;0,191;0,290;-0,052;
20190809_155216;-0,172;4,748;6,555;0,012;0,147;0,012;
20190809_155216;-1,211;4,614;10,949;-0,040;0,070;0,010;
20190809_155216;0,986;5,241;8,131;-0,046;0,140;-0,044;
20190809_155217;0,172;4,240;3,721;0,060;0,185;-0,111;
20190809_155217;-0,412;3,618;5,286;0,158;-0,142;-0,059;
20190809_155217;-0,452;4,319;4,130;0,148;-0,008;-0,054;
20190809_155217;0,057;5,231;8,454;-0,053;-0,021;-0,033;
20190809_155217;0,881;6,840;9,287;-0,001;0,094;-0,024;
20190809_155217;0,927;4,041;9,349;0,026;0,096;-0,076;
20190809_155217;-0,256;4,197;6,268;-0,011;-0,034;-0,112;
20190809_155217;-0,124;6,407;10,901;-0,002;-0,069;-0,095;
20190809_155217;-1,135;3,163;6,792;0,058;-0,028;-0,053;
20190809_155217;-0,330;4,219;10,484;-0,258;-0,199;0,131;
20190809_155218;1,592;6,462;13,546;-0,175;-0,023;0,075;
20190809_155218;-1,638;4,058;8,286;-0,030;-0,146;-0,002;
20190809_155218;-0,091;4,769;9,766;-0,174;-0,100;-0,020;
20190809_155218;0,646;4,726;8,971;0,012;-0,008;-0,021;
20190809_155218;0,230;4,513;7,903;-0,008;-0,040;-0,113;
20190809_155218;-2,157;1,944;5,653;0,052;-0,070;-0,058;
20190809_155218;0,225;7,436;15,273;0,052;0,019;-0,017;
20190809_155218;0,948;4,793;14,279;-0,010;0,015;0,091;
20190809_155218;1,393;5,155;10,432;-0,177;-0,044;0,042;
20190809_155219;0,690;4,949;10,458;-0,061;-0,056;-0,004;
20190809_155219;-1,365;4,381;4,080;-0,040;-0,036;-0,075;
20190809_155219;-0,038;3,361;4,879;0,260;0,076;-0,049;
20190809_155219;0,706;3,663;12,088;-0,121;-0,025;0,023;
20190809_155219;0,979;4,822;6,989;-0,023;-0,017;0,005;
20190809_155219;1,027;6,266;13,719;-0,126;0,012;-0,034;
20190809_155219;-0,079;4,207;11,030;-0,318;-0,194;0,032;
20190809_155219;-0,330;4,343;8,813;0,087;0,033;-0,044;
20190809_155219;-1,293;4,422;6,744;0,005;-0,051;-0,021;
20190809_155219;-0,242;3,699;4,879;0,008;-0,017;0,068;
20190809_155220;-1,094;1,456;-1,358;0,341;0,111;0,058;
20190809_155220;0,206;6,871;12,498;-0,743;-0,066;0,159;
20190809_155220;0,172;6,926;11,349;0,115;0,273;-0,037;
20190809_155220;0,951;2,270;5,337;0,002;0,054;-0,101;
20190809_155220;-0,239;4,573;6,079;0,018;-0,021;-0,174;
20190809_155220;1,156;6,175;12,550;-0,357;-0,334;-0,100;
20190809_155220;-0,053;7,336;18,936;-0,142;-0,214;-0,119;
20190809_155220;1,269;5,375;14,916;-0,089;-0,227;0,077;
20190809_155220;2,150;6,464;14,339;-0,416;-0,255;0,137;
20190809_155221;-1,101;2,818;5,734;0,036;0,028;-0,034;
20190809_155221;-0,833;7,439;-0,170;0,343;0,213;-0,057;
20190809_155221;0,132;7,472;19,273;-0,426;-0,112;-0,051;
20190809_155221;-5,356;8,990;25,273;-0,307;0,598;0,064;
20190809_155221;0,304;1,492;9,043;-2,639;0,554;-0,829;
20190809_155221;1,604;2,540;8,334;0,267;-0,117;0,065;
20190809_155221;4,166;5,100;8,765;0,054;-0,131;-0,051;
20190809_155221;-2,739;2,193;6,347;0,041;0,014;-0,051;
20190809_155221;0,752;4,259;6,644;-0,120;-0,047;0,089;
20190809_155221;-1,290;-1,214;-1,980;-0,845;-0,270;0,105;
20190809_155222;4,365;10,104;-1,575;1,517;-0,402;0,415;
20190809_155222;-1,597;9,330;11,820;0,182;0,148;0,061;
20190809_155222;0,426;4,891;11,801;-0,063;-0,217;-0,470;
20190809_155222;-1,918;3,859;9,378;0,241;0,160;-0,261;
20190809_155222;3,105;4,207;15,452;-0,296;-0,263;0,110;
20190809_155222;-0,716;3,555;2,964;0,062;-0,033;-0,043;
20190809_155222;0,256;-1,010;-4,391;-0,582;-0,856;0,083;
20190809_155222;0,783;2,011;0,132;0,536;-0,386;0,121;
20190809_155222;2,124;5,045;15,672;0,079;-0,008;-0,157;
20190809_155223;4,707;5,088;5,887;-0,621;-0,587;0,368;
20190809_155223;1,192;3,311;14,530;-0,261;-0,106;-0,149;
20190809_155223;-0,091;7,061;10,278;0,050;-0,228;-0,073;
20190809_155223;-2,598;4,075;5,042;-0,232;-0,400;0,097;
20190809_155223;-2,054;2,421;-1,199;0,751;0,218;-0,114;
20190809_155223;0,201;-0,735;-2,270;-0,460;-0,441;0,272;
20190809_155223;0,740;4,829;6,840;0,132;0,084;0,082;
20190809_155223;-1,489;2,078;-1,437;0,553;-0,033;0,163;
20190809_155223;2,155;6,223;8,868;0,489;0,209;0,026;
20190809_155223;-0,563;3,802;6,191;-0,313;0,062;-0,316;
20190809_155224;0,596;2,370;4,525;0,112;-0,507;0,005;
20190809_155224;1,642;5,152;3,615;-0,100;-0,003;-0,126;
20190809_155224;-3,000;6,043;4,238;0,493;0,021;0,032;
20190809_155224;0,953;6,632;-0,855;0,355;0,000;0,128;
20190809_155224;-2,363;10,017;20,887;-0,153;-0,132;-0,245;
20190809_155224;-2,583;1,513;0,857;1,162;-0,254;-0,118;
20190809_155224;-0,486;3,223;5,157;0,107;0,088;-0,211;
20190809_155224;-1,401;6,258;5,760;0,372;-0,237;-0,210;
20190809_155224;-3,400;9,273;16,087;-0,645;0,055;-0,156;
20190809_155225;-1,252;3,089;1,123;-0,100;-0,032;-0,030;
20190809_155225;3,694;3,328;11,813;-0,409;-0,058;0,388;
20190809_155225;-0,309;4,848;2,006;0,343;0,028;-0,022;
20190809_155225;-1,628;5,083;6,998;0,112;0,078;-0,049;
20190809_155225;-0,642;5,598;12,344;0,166;0,052;0,074;
20190809_155225;-2,169;3,785;0,014;0,307;0,154;-0,039;
20190809_155225;0,206;2,595;-0,668;-0,090;0,156;-0,230;
20190809_155225;-0,551;3,960;-1,753;0,585;-0,134;-0,104;
20190809_155225;-2,227;5,693;1,365;0,297;0,038;-0,182;
20190809_155226;0,306;1,867;12,711;-0,192;-0,218;-0,080;
20190809_155226;-0,903;1,504;-0,259;0,221;0,045;0,068;
20190809_155226;-0,055;8,267;0,053;1,142;0,162;0,098;
20190809_155226;-0,268;4,961;4,750;0,221;-0,096;-0,232;
20190809_155226;-1,159;6,388;4,554;0,188;-0,075;-0,098;
20190809_155226;-0,816;6,043;6,725;0,305;-0,087;-0,074;
20190809_155226;-0,261;0,287;-0,280;0,697;-0,084;-0,016;
20190809_155226;-0,491;-0,098;0,500;0,340;0,152;0,429;
20190809_155226;0,479;7,887;2,535;-0,059;0,496;-0,150;
20190809_155226;0,299;6,589;3,548;0,068;0,081;-0,033;
20190809_155227;-1,008;3,340;3,910;0,308;-0,043;-0,122;
20190809_155227;0,371;3,170;-1,669;0,559;-0,100;-0,031;
20190809_155227;0,146;10,353;15,201;-0,021;-0,047;-0,101;
20190809_155227;-3,139;2,298;2,148;0,370;0,021;-0,211;
20190809_155227;-0,330;9,278;9,900;-0,546;-0,256;0,071;
20190809_155227;-1,322;3,065;5,552;0,004;-0,107;-0,071;
20190809_155227;-0,642;3,433;3,847;0,396;0,034;0,019;
20190809_155227;-4,310;17,102;13,874;1,151;0,131;0,042;
20190809_155227;-2,002;6,438;4,420;1,437;0,380;-0,190;
20190809_155228;0,627;7,702;7,554;-0,296;0,223;-0,226;
20190809_155228;-0,057;5,432;15,012;-0,078;-0,130;-0,225;
20190809_155228;-0,654;4,259;14,315;0,146;-0,164;-0,267;
20190809_155228;1,209;6,280;18,897;-0,718;-0,452;0,190;
20190809_155228;1,688;5,578;15,179;-1,354;-0,520;0,565;
20190809_155228;1,954;3,220;5,052;0,411;0,383;-0,062;
20190809_155228;-1,044;10,862;29,544;-0,687;0,449;0,181;
20190809_155228;-1,937;4,207;23,169;-3,538;-0,429;-0,243;
20190809_155228;2,995;4,927;11,109;-0,931;-1,065;0,269;
20190809_155229;-2,684;3,500;7,882;0,319;0,018;-0,054;
20190809_155229;1,693;3,761;14,104;-0,059;-0,007;0,161;
20190809_155229;1,487;7,400;12,514;-0,617;0,147;0,110;
20190809_155229;1,199;5,595;11,258;0,003;0,110;-0,027;
20190809_155229;-0,074;3,701;6,433;0,128;0,023;-0,135;
20190809_155229;0,508;3,788;8,035;-0,030;-0,125;-0,027;
20190809_155229;-1,487;6,194;14,765;0,156;0,107;-0,117;
20190809_155229;1,386;5,392;8,368;-0,365;-0,164;0,202;
20190809_155229;1,415;4,764;15,031;-0,332;-0,079;-0,101;
20190809_155229;-0,766;3,759;6,187;0,308;0,184;-0,219;
20190809_155230;-5,519;12,986;8,600;0,907;0,741;-0,154;
20190809_155230;3,994;11,260;21,138;0,731;0,130;0,068;
20190809_155230;-2,377;2,229;0,309;0,486;0,236;0,027;
20190809_155230;-1,118;7,925;6,551;-0,720;0,940;-0,155;
20190809_155230;-0,491;7,678;6,201;0,891;0,307;-0,421;
20190809_155230;1,118;-1,748;7,238;-2,616;-0,951;0,678;
20190809_155230;1,961;5,279;14,746;-1,712;0,087;-0,003;
20190809_155230;-1,731;2,435;0,069;0,332;0,295;0,006;
20190809_155230;0,986;3,814;4,697;0,032;0,064;0,015;
20190809_155231;-1,099;3,977;12,239;0,089;0,153;-0,144;
20190809_155231;-0,407;4,185;7,161;0,158;0,150;-0,149;
20190809_155231;0,235;8,547;14,234;-0,522;-0,124;-0,020;
20190809_155231;-0,888;-0,405;-2,792;0,505;-0,063;-0,206;
20190809_155231;-1,374;2,167;0,378;1,186;0,332;-0,238;
20190809_155231;1,379;4,671;9,076;0,141;-0,242;-0,229;
20190809_155231;-1,626;1,812;-1,587;0,723;-0,051;-0,227;
20190809_155231;-0,405;2,028;3,366;0,469;0,028;-0,209;
20190809_155231;0,251;3,151;7,805;-0,469;-0,815;0,008;
20190809_155232;-3,259;2,564;-0,098;0,820;0,597;-0,044;
20190809_155232;1,812;11,236;7,230;0,967;0,739;0,334;
20190809_155232;-2,478;3,292;1,884;0,230;1,586;-0,329;
20190809_155232;4,503;5,952;4,640;0,518;0,284;-0,318;
20190809_155232;-0,905;5,413;5,171;0,012;-0,157;-0,156;
20190809_155232;-1,300;1,666;-0,242;0,200;-0,117;-0,030;
20190809_155232;-2,397;4,266;4,413;0,506;0,359;-0,185;
20190809_155232;-0,785;2,772;1,978;0,425;0,251;-0,185;
20190809_155232;-1,228;3,943;5,071;-0,051;-0,197;-0,017;
20190809_155232;-1,003;4,944;10,233;-0,232;-0,246;-0,005;
20190809_155233;-0,067;4,824;10,678;-0,005;-0,105;0,001;
20190809_155233;-3,833;7,168;12,074;0,597;0,251;-0,041;
20190809_155233;0,031;4,695;5,693;0,143;-0,194;0,106;
20190809_155233;-2,035;4,278;2,986;0,447;0,219;-0,035;
20190809_155233;-0,476;5,327;10,594;0,269;0,152;0,016;
20190809_155233;0,194;7,072;18,091;-0,333;-0,168;-0,062;
20190809_155233;0,110;7,008;9,445;-0,270;-0,236;0,213;
20190809_155233;-0,012;2,581;0,165;0,140;-0,001;0,098;
20190809_155233;-0,031;5,602;10,630;0,022;0,127;-0,034;
20190809_155233;-3,227;3,388;8,083;0,189;0,138;-0,097;
20190809_155234;0,225;4,932;9,134;-0,007;-0,121;0,243;
20190809_155234;-0,148;8,171;20,197;-0,237;-0,048;0,145;
20190809_155234;2,377;10,183;24,670;-0,113;-0,157;0,201;
20190809_155234;1,307;3,196;9,400;-0,460;-0,174;0,377;
20190809_155234;1,125;3,725;9,749;-0,323;0,065;0,132;
20190809_155234;0,086;4,197;-0,498;0,849;0,509;-0,134;
20190809_155234;-0,517;5,298;0,204;0,748;0,090;-0,229;
20190809_155234;-2,993;6,991;12,577;-0,025;0,041;-0,336;
20190809_155234;-1,111;3,165;4,609;-0,122;-0,193;0,222;
20190809_155235;-2,052;3,979;4,161;0,393;0,416;0,028;
20190809_155235;-0,910;4,841;4,506;0,145;0,039;0,058;
20190809_155235;-0,625;6,297;15,577;-0,383;0,024;0,084;
20190809_155235;0,577;4,243;5,325;-0,076;0,130;0,059;
20190809_155235;-0,862;1,542;-1,508;0,698;0,349;0,064;
20190809_155235;-1,446;8,806;15,349;0,413;0,527;-0,272;
20190809_155235;-1,274;5,662;10,410;-1,059;0,175;0,107;
20190809_155235;0,208;3,340;2,662;0,202;0,101;-0,109;
20190809_155235;-0,306;3,323;10,199;-0,394;-0,249;0,110;
20190809_155236;0,668;5,904;16,005;-0,127;0,047;0,040;
20190809_155236;-0,936;1,832;-0,515;0,249;0,228;-0,089;
20190809_155236;-0,177;4,499;-0,445;0,535;0,398;0,096;
20190809_155236;-0,036;4,070;3,007;0,120;-0,091;-0,230;
20190809_155236;-2,540;5,823;7,958;-0,086;-0,168;0,024;
20190809_155236;-0,512;5,748;13,001;0,189;0,148;-0,006;
20190809_155236;0,421;4,140;9,953;-0,367;-0,168;0,234;
20190809_155236;-1,295;4,245;1,683;0,148;0,146;0,040;
20190809_155236;0,314;1,458;1,238;0,249;0,341;-0,096;
20190809_155236;2,327;3,493;2,533;0,178;0,044;-0,006;
20190809_155237;-1,245;4,096;1,386;0,470;0,277;-0,258;
20190809_155237;-1,156;5,583;7,398;0,167;0,011;-0,126;
20190809_155237;-1,422;2,502;0,022;0,413;0,206;-0,128;
20190809_155237;-0,074;6,134;5,895;0,310;0,256;-0,060;
20190809_155237;1,393;5,167;3,148;0,066;-0,526;-0,178;
20190809_155237;0,201;4,058;11,708;-0,032;-0,061;-0,145;
20190809_155237;-1,477;4,650;7,496;0,041;-0,112;-0,082;
20190809_155237;-0,359;5,061;10,585;-0,232;-0,117;0,032;
20190809_155237;0,541;5,437;14,509;-0,160;-0,061;0,009;
20190809_155238;-0,335;5,059;11,990;-0,024;0,057;-0,118;
20190809_155238;0,318;6,223;14,894;-0,138;-0,184;-0,144;
20190809_155238;-0,184;3,646;3,496;-0,115;-0,314;-0,049;
20190809_155238;-0,201;2,229;1,104;0,222;-0,140;-0,096;
20190809_155238;-2,926;3,754;6,910;-0,041;-0,292;0,085;
20190809_155238;0,251;5,820;8,600;0,271;0,199;-0,026;
20190809_155238;-1,089;4,717;12,088;0,199;0,147;-0,070;
20190809_155238;2,119;4,834;12,115;-0,349;-0,350;0,104;
20190809_155238;-0,472;6,555;14,729;-0,517;-0,333;0,095;
20190809_155239;-0,077;4,597;5,677;-0,051;-0,073;0,114;
20190809_155239;-1,686;5,899;6,608;0,103;0,079;0,040;
20190809_155239;-1,611;1,760;0,172;0,341;0,252;0,084;
20190809_155239;3,220;5,916;9,108;0,324;0,189;0,236;
20190809_155239;-0,888;8,035;15,984;-0,577;-0,038;0,097;
20190809_155239;0,302;4,298;10,570;-1,517;-0,141;-0,018;
20190809_155239;-0,280;3,517;4,156;-0,753;-0,419;-0,158;
20190809_155239;0,924;4,810;18,790;-0,388;-0,211;0,022;
20190809_155239;0,488;5,114;11,454;-0,047;-0,102;0,080;
20190809_155239;-0,776;1,271;2,081;0,329;0,236;0,095;
20190809_155240;0,769;3,431;6,165;0,053;0,158;0,095;
20190809_155240;-0,831;3,821;12,768;-0,175;0,144;0,075;
20190809_155240;1,942;5,025;10,027;-0,008;0,113;-0,073;
20190809_155240;0,357;3,460;10,961;-0,032;-0,001;-0,204;
20190809_155240;1,020;2,665;5,959;0,177;-0,071;-0,163;
20190809_155240;-1,365;3,326;9,823;0,017;-0,118;-0,130;
20190809_155240;0,235;5,794;10,427;0,148;-0,001;-0,006;
20190809_155240;-1,075;6,239;7,796;0,058;-0,030;0,049;
20190809_155240;0,330;4,664;3,002;0,237;0,194;0,088;
20190809_155241;-2,473;5,954;13,448;-0,094;0,081;0,031;
20190809_155241;-0,840;5,511;7,973;-0,509;-0,272;0,035;
20190809_155241;-0,306;3,630;8,645;-0,059;0,126;-0,089;
20190809_155241;0,706;3,539;4,118;0,178;0,031;-0,063;
20190809_155241;-1,202;3,962;4,487;0,093;-0,051;-0,067;
20190809_155241;1,484;5,741;12,632;0,145;-0,108;0,022;
20190809_155241;-2,282;2,696;3,658;-0,112;0,032;-0,051;
20190809_155241;1,994;4,255;3,484;0,090;0,066;0,095;
20190809_155241;-1,501;4,367;6,735;0,187;0,093;-0,033;
20190809_155242;-1,614;6,567;9,821;-0,389;-0,074;0,016;
20190809_155242;0,204;3,431;7,341;-0,234;-0,135;0,046;
20190809_155242;0,409;5,665;8,885;-0,038;-0,044;-0,091;
20190809_155242;-1,279;4,879;13,532;0,204;0,075;-0,140;
20190809_155242;-1,319;2,772;1,750;0,163;-0,034;0,012;
20190809_155242;0,158;8,150;10,326;0,466;0,095;0,056;
20190809_155242;0,115;5,540;12,972;-0,103;-0,129;0,128;
20190809_155242;0,105;6,383;14,641;0,204;0,328;-0,109;
20190809_155242;-0,304;3,519;2,073;-0,754;-0,396;0,113;
20190809_155242;-0,740;6,347;8,777;0,328;0,156;-0,049;
20190809_155243;-0,373;3,371;5,921;-0,016;0,017;-0,044;
20190809_155243;-0,639;3,663;3,122;0,150;0,034;-0,001;
20190809_155243;0,302;3,175;7,458;0,117;0,086;-0,039;
20190809_155243;-0,043;2,974;6,790;-0,017;0,018;0,003;
20190809_155243;-0,158;6,115;12,886;0,297;0,239;0,011;
20190809_155243;-0,685;5,521;9,443;-0,157;-0,092;-0,002;
20190809_155243;-0,898;1,709;6,057;-0,218;0,008;0,106;
20190809_155243;0,747;5,669;19,010;-0,420;-0,173;0,219;
20190809_155243;-2,502;7,511;4,070;0,239;0,100;0,082;
20190809_155244;0,769;3,282;3,768;0,213;0,146;0,031;
20190809_155244;-0,532;5,516;9,165;-0,043;-0,073;-0,037;
20190809_155244;-0,393;4,405;10,060;-0,210;-0,295;0,090;
20190809_155244;-0,781;2,928;9,146;0,109;-0,006;0,046;
20190809_155244;-0,737;4,417;3,598;-0,192;-0,202;0,234;
20190809_155244;-1,202;5,619;-1,015;0,962;0,576;0,123;
20190809_155244;-1,271;4,092;-1,195;0,716;0,770;-0,081;
20190809_155244;0,019;5,406;18,857;-0,040;0,365;0,013;
20190809_155244;0,036;2,832;4,374;-0,169;-0,070;0,160;
20190809_155244;-2,126;4,049;1,616;0,070;0,073;0,103;
20190809_155245;0,740;4,774;17,107;-0,093;0,091;0,110;
20190809_155245;1,628;3,661;6,558;-0,680;-0,394;0,351;
20190809_155245;-0,476;6,898;9,352;0,137;0,321;0,000;
20190809_155245;-0,237;3,780;9,031;-0,150;0,058;0,077;
20190809_155245;-1,097;5,717;21,428;-0,803;0,032;-0,035;
20190809_155245;-0,907;2,693;2,294;0,205;0,221;-0,084;
20190809_155245;-3,326;4,551;4,920;0,054;0,214;-0,068;
20190809_155245;1,240;5,976;11,483;-0,169;0,019;0,030;
20190809_155245;-0,539;6,536;17,523;-0,101;0,025;-0,132;
20190809_155245;4,221;7,118;13,250;0,241;-0,256;0,079;
20190809_155246;-1,640;2,761;-0,627;0,364;-0,115;-0,244;
20190809_155246;-3,680;4,365;8,054;0,256;0,147;-0,155;
20190809_155246;2,193;5,404;18,191;-0,002;0,038;0,239;
20190809_155246;0,321;2,816;4,422;-0,230;0,001;0,080;
20190809_155246;-0,615;4,906;4,630;0,322;0,203;-0,088;
20190809_155246;-1,882;3,948;2,198;0,446;0,505;-0,325;
20190809_155246;-0,043;2,717;4,142;-0,064;-0,060;-0,056;
20190809_155246;0,883;5,021;9,017;-0,220;-0,219;-0,018;
20190809_155246;-2,155;4,463;5,921;-0,038;-0,139;-0,069;
20190809_155247;-0,716;5,064;10,558;-0,242;-0,237;0,052;
20190809_155247;-1,164;3,807;8,207;-0,038;-0,167;0,068;
20190809_155247;-1,204;4,231;3,282;0,367;0,188;0,057;
20190809_155247;-0,452;8,411;21,603;-0,465;-0,069;0,035;
20190809_155247;1,985;4,990;20,760;-0,821;-0,052;0,197;
20190809_155247;-1,355;2,327;-2,047;0,612;0,079;-0,177;
20190809_155247;-0,900;2,181;2,229;0,466;-0,146;0,018;
20190809_155247;-1,279;6,546;9,189;0,107;0,003;-0,070;
20190809_155247;-0,431;3,419;1,669;0,223;0,021;0,100;
20190809_155248;-0,077;3,893;6,534;-0,191;-0,170;0,192;
20190809_155248;0,702;5,861;8,904;-0,421;-0,201;0,129;
20190809_155248;-0,601;6,730;10,084;-0,094;-0,037;0,029;
20190809_155248;1,279;2,638;10,025;-0,186;-0,099;0,074;
20190809_155248;-0,515;5,796;12,117;-0,074;-0,107;0,041;
20190809_155248;-0,139;5,658;3,898;-0,318;-0,205;0,111;
20190809_155248;-0,443;4,664;9,608;-0,080;0,007;0,048;
20190809_155248;-2,136;5,071;5,646;0,141;0,093;0,038;
20190809_155248;0,706;7,927;14,815;-0,302;-0,069;0,158;
20190809_155248;-1,099;2,555;1,144;0,034;0,068;-0,048;
20190809_155249;-1,554;3,304;3,812;-0,129;0,015;-0,014;
20190809_155249;-0,213;3,733;0,678;0,244;0,192;-0,069;
20190809_155249;-0,412;5,377;6,862;0,204;0,144;0,025;
20190809_155249;0,551;4,645;8,672;0,243;0,321;-0,076;
20190809_155249;-0,991;7,712;9,931;-0,096;0,059;-0,017;
20190809_155249;0,069;4,506;3,476;0,242;0,280;-0,196;
20190809_155249;-1,793;2,203;-1,331;0,557;0,052;-0,179;
20190809_155249;-0,680;4,489;-0,713;0,606;0,248;-0,247;
20190809_155249;-4,635;4,678;0,893;0,231;-0,082;-0,356;
20190809_155250;-2,169;1,511;-0,338;0,447;-0,008;-0,126;
20190809_155250;-2,387;4,039;1,872;0,732;0,041;0,154;
20190809_155250;0,967;5,540;9,766;-0,457;-0,164;0,263;
20190809_155250;2,871;0,871;-3,342;-1,611;-0,926;0,680;
20190809_155250;0,287;7,865;14,820;0,045;0,161;0,021;
20190809_155250;2,476;7,135;18,371;-0,400;-0,031;0,009;
20190809_155250;-0,864;6,225;16,211;0,524;-0,022;-0,166;
20190809_155250;0,256;4,451;3,424;-0,061;-0,047;-0,168;
20190809_155250;-0,970;3,780;1,231;0,042;-0,325;0,160;
20190809_155250;-0,448;3,036;-2,761;0,181;-0,161;0,105;
20190809_155251;-1,056;2,033;-1,451;0,231;-0,028;0,134;
20190809_155251;-0,187;2,076;-0,965;0,420;0,000;0,166;
20190809_155251;-1,384;3,697;2,562;0,068;0,173;-0,049;
20190809_155251;-0,666;5,617;5,370;0,346;0,215;-0,198;
20190809_155251;-0,072;2,689;0,218;0,002;-0,118;-0,064;
20190809_155251;1,326;-1,379;-3,199;-0,931;-1,451;0,502;
20190809_155251;-1,930;4,997;5,430;-0,553;-0,428;0,277;
20190809_155251;-3,457;4,748;8,871;0,434;0,460;-0,177;
20190809_155251;1,058;5,686;11,727;-0,260;0,025;0,173;
20190809_155252;1,192;1,334;0,496;-0,459;-0,026;0,149;
20190809_155252;-1,180;3,057;-1,183;0,482;0,046;-0,118;
20190809_155252;1,401;5,054;11,344;0,133;0,132;-0,129;
20190809_155252;0,074;5,392;13,664;-0,017;0,018;-0,085;
20190809_155252;1,245;4,645;6,917;-0,265;-0,153;0,042;
20190809_155252;-2,004;1,267;-2,296;0,831;0,271;-0,095;
20190809_155252;-4,228;6,780;22,539;-0,090;1,376;-0,537;
20190809_155252;2,174;8,720;18,658;0,125;-0,056;0,026;
20190809_155252;3,409;-0,134;4,386;-2,887;-0,721;-0,003;
20190809_155253;4,515;0,539;6,543;0,081;-0,932;0,340;
20190809_155253;0,187;3,742;6,893;-0,112;-0,300;0,056;
20190809_155253;0,017;6,072;13,008;-0,099;-0,114;0,057;
20190809_155253;2,179;4,702;15,189;-0,461;-0,273;0,182;
20190809_155253;0,771;4,075;6,170;-0,422;-0,194;0,147;
20190809_155253;-4,559;5,440;8,803;-0,252;0,245;0,068;
20190809_155253;-0,821;4,808;0,900;0,392;0,315;0,148;
20190809_155253;1,635;5,373;14,049;0,030;0,324;0,027;
20190809_155253;1,480;6,462;13,786;-0,183;-0,003;-0,185;
20190809_155253;0,414;4,700;8,181;-0,126;-0,085;-0,222;
20190809_155254;0,491;5,945;12,953;-0,226;-0,347;-0,139;
20190809_155254;-1,341;4,896;7,700;0,055;-0,219;-0,155;
20190809_155254;0,271;5,792;12,613;0,008;-0,311;0,019;
20190809_155254;-0,433;3,256;6,958;-0,299;-0,296;0,116;
20190809_155254;-0,881;0,618;-2,552;0,368;0,261;-0,033;
20190809_155254;-2,354;6,416;11,155;0,527;0,392;-0,217;
20190809_155254;1,516;6,148;28,438;-0,139;0,077;-0,124;
20190809_155254;-1,915;5,614;7,269;-0,129;-0,121;0,090;
20190809_155254;1,022;10,625;14,796;0,432;-0,034;-0,021;
20190809_155254;0,754;6,512;17,322;-0,298;0,071;-0,104;
20190809_155255;-1,793;2,521;-1,247;0,547;0,189;-0,237;
20190809_155255;-3,555;16,295;27,543;1,381;0,533;-0,539;
20190809_155255;-0,194;11,758;23,425;-2,098;1,429;-0,079;
20190809_155255;-0,134;4,293;7,309;0,086;-0,024;-0,016;
20190809_155255;0,757;3,199;4,662;0,082;-0,019;-0,070;
20190809_155255;-1,616;3,508;2,090;0,371;-0,022;-0,106;
20190809_155255;-0,144;5,590;13,060;0,000;-0,140;-0,095;
20190809_155255;-2,231;5,045;10,992;-0,348;-0,203;0,028;
20190809_155255;-0,024;2,763;-0,065;0,080;-0,079;0,189;
20190809_155256;0,690;5,420;5,945;0,099;0,018;0,033;
20190809_155256;0,170;4,585;7,032;0,243;0,041;-0,083;
20190809_155256;1,401;7,063;21,165;-0,441;-0,270;0,001;
20190809_155256;0,405;8,203;16,300;0,048;-0,157;0,098;
20190809_155256;-2,775;6,754;4,784;0,679;0,146;-0,072;
20190809_155256;1,008;2,480;10,460;0,214;-0,042;0,104;
20190809_155256;-2,265;5,397;3,795;-0,155;0,209;0,030;
20190809_155256;-1,640;2,229;2,370;0,353;0,067;-0,305;
20190809_155256;-0,235;3,455;8,368;-0,155;0,008;-0,021;
20190809_155257;-0,060;4,736;6,484;-0,096;0,002;0,008;
20190809_155257;-0,958;2,021;2,990;0,205;0,064;-0,183;
20190809_155257;-0,335;5,179;10,625;-0,126;-0,170;-0,031;
20190809_155257;-1,142;1,240;1,154;0,222;-0,043;-0,035;
20190809_155257;1,796;5,720;17,803;-0,578;-0,267;0,119;
20190809_155257;-0,661;6,814;10,362;0,036;0,049;0,094;
20190809_155257;0,603;4,135;6,778;0,094;0,182;0,045;
20190809_155257;1,470;5,420;10,508;-0,024;0,124;-0,042;
20190809_155257;-1,707;2,638;-2,155;-0,027;0,160;-0,147;
20190809_155257;2,385;6,984;8,574;0,809;-0,075;-0,202;
20190809_155258;-2,672;3,510;13,242;-1,111;-0,389;-0,155;
20190809_155258;1,889;3,270;5,665;0,093;-0,285;0,099;
20190809_155258;-0,819;4,300;8,557;-0,431;0,157;-0,015;
20190809_155258;1,118;6,615;11,720;-0,298;-0,123;0,109;
20190809_155258;0,946;6,019;13,838;-0,582;-0,073;-0,042;
20190809_155258;-0,567;4,559;3,953;0,214;-0,054;-0,071;
20190809_155258;-1,542;2,485;5,471;0,050;0,026;-0,116;
20190809_155258;-0,388;3,242;0,685;0,321;0,124;-0,085;
20190809_155258;-2,236;2,696;5,725;0,069;-0,047;-0,062;
20190809_155259;0,663;6,567;10,285;0,022;0,050;-0,101;
20190809_155259;-2,916;5,195;5,160;0,360;0,086;-0,142;
20190809_155259;-1,037;3,326;8,368;-0,086;-0,060;0,006;
20190809_155259;-1,396;3,371;2,753;0,118;0,055;-0,041;
20190809_155259;-0,146;4,386;7,511;0,077;-0,020;-0,035;
20190809_155259;-0,520;3,278;-0,582;0,314;-0,005;-0,134;
20190809_155259;1,324;4,743;10,793;-0,017;-0,105;-0,044;
20190809_155259;-0,132;2,868;6,649;-0,032;-0,156;0,011;
20190809_155259;-0,960;5,148;7,173;0,060;-0,067;0,050;
20190809_155300;2,172;7,302;21,088;0,126;0,116;0,128;
20190809_155300;3,467;7,683;25,391;-0,072;-0,038;0,106;
20190809_155300;4,305;6,891;5,097;-0,201;0,049;0,056;
20190809_155300;-0,654;4,044;7,046;0,223;0,067;-0,222;
20190809_155300;-0,922;4,566;1,846;0,396;-0,049;-0,122;
20190809_155300;1,611;7,046;19,630;0,136;-0,063;-0,117;
20190809_155300;-0,711;3,857;11,155;-0,262;-0,212;0,156;
20190809_155300;-1,523;6,342;2,983;-0,206;0,003;0,189;
20190809_155300;-0,036;2,811;2,942;0,059;0,099;0,019;
20190809_155301;0,543;4,549;8,250;0,413;0,044;-0,204;
20190809_155301;-0,041;3,919;12,450;-0,398;-0,215;-0,009;
20190809_155301;-2,291;7,001;25,228;-0,611;-0,109;0,123;
20190809_155301;0,089;4,604;7,408;-0,641;-0,024;0,262;
20190809_155301;1,604;5,155;11,310;-0,365;0,165;0,013;
20190809_155301;0,156;3,108;-1,276;0,359;-0,090;-0,071;
20190809_155301;-0,168;9,974;20,954;0,320;-0,202;-0,133;
20190809_155301;-2,049;8,780;25,182;-2,790;-0,671;0,072;
20190809_155301;-3,385;7,812;24,174;-0,299;-0,090;-0,081;
20190809_155301;2,468;6,038;23,123;-0,066;-0,083;0,191;
20190809_155302;0,785;7,286;19,271;-0,700;-0,309;0,398;
20190809_155302;1,705;6,979;15,912;-0,086;-0,024;0,217;
20190809_155302;-0,771;5,277;9,744;-0,036;0,209;0,091;
20190809_155302;-1,535;1,535;-2,624;1,400;0,374;-0,183;
20190809_155302;-0,912;-1,300;-3,084;-4,557;-0,392;0,101;
20190809_155302;-0,462;2,040;-2,636;1,686;0,168;-0,478;
20190809_155302;2,399;6,383;16,029;0,130;-0,406;0,107;
20190809_155302;-3,299;1,271;15,909;-0,330;-0,190;-0,155;
20190809_155302;5,691;7,764;14,698;-0,304;-0,424;0,177;
20190809_155303;-0,311;0,168;0,577;-0,592;-0,075;-0,222;
20190809_155303;-3,682;3,589;5,102;0,439;0,072;-0,199;
20190809_155303;0,117;3,723;16,063;-0,048;-0,035;0,065;
20190809_155303;-0,972;3,208;3,388;0,066;0,070;-0,091;
20190809_155303;2,911;5,250;21,098;-0,184;-0,249;0,182;
20190809_155303;-2,643;4,408;4,788;0,179;0,032;-0,116;
20190809_155303;-0,579;4,611;11,595;0,276;0,114;-0,002;
20190809_155303;-0,539;3,958;9,426;-0,204;-0,164;0,178;
20190809_155303;-2,722;6,675;11,629;0,360;0,532;-0,065;
20190809_155304;0,783;3,807;10,913;-0,256;-0,149;0,085;
20190809_155304;-0,807;7,472;10,159;-0,062;-0,160;0,047;
20190809_155304;-2,830;3,476;7,910;0,131;-0,076;-0,046;
20190809_155304;2,143;5,440;15,773;-0,259;-0,367;0,273;
20190809_155304;-0,043;4,075;8,957;-0,046;0,074;0,179;
20190809_155304;0,397;5,945;7,985;0,101;0,145;0,082;
20190809_155304;0,431;2,899;5,543;0,124;0,233;-0,090;
20190809_155304;-1,671;2,555;5,207;0,030;0,081;-0,170;
20190809_155304;-1,245;4,424;4,623;0,054;-0,036;-0,033;
20190809_155305;-1,834;2,219;2,739;0,321;0,372;-0,126;
20190809_155305;-0,168;2,974;7,274;-0,128;0,051;0,080;
20190809_155305;-0,192;6,879;17,176;-0,074;0,230;0,043;
20190809_155305;8,018;10,357;19,805;0,094;0,028;0,407;
20190809_155305;-1,707;3,680;7,975;0,008;-0,150;-0,085;
20190809_155305;-1,690;4,463;11,454;0,196;0,005;-0,123;
20190809_155305;-1,798;5,358;12,594;-0,014;0,068;0,054;
20190809_155305;2,136;4,353;14,921;-0,293;0,038;0,092;
20190809_155305;0,455;6,874;10,977;-0,109;0,105;-0,117;
20190809_155305;-0,007;3,390;10,130;0,066;-0,066;-0,181;
20190809_155306;1,511;5,279;14,648;-0,147;-0,321;-0,151;
20190809_155306;-3,005;7,465;15,694;0,402;0,214;-0,207;
20190809_155306;-0,567;5,186;9,572;0,041;-0,269;0,114;
20190809_155306;-0,852;3,979;10,908;-0,159;-0,164;0,165;
20190809_155306;-1,075;4,719;1,645;0,017;0,029;0,162;
20190809_155306;-0,366;4,046;4,164;0,126;0,238;-0,022;
20190809_155306;2,638;3,548;10,635;0,142;0,087;-0,069;
20190809_155306;0,005;5,770;10,910;-0,092;-0,037;-0,220;
20190809_155306;-3,168;3,675;3,294;0,161;-0,275;-0,031;
20190809_155307;0,204;2,852;11,801;-0,098;-0,101;0,013;
20190809_155307;-1,020;1,286;9,421;-0,245;-0,059;-0,005;
20190809_155307;1,034;4,616;16,113;-0,071;0,075;0,077;
20190809_155307;-0,376;6,639;7,922;-0,186;-0,128;0,144;
20190809_155307;-3,005;3,500;-1,288;0,492;0,481;-0,194;
20190809_155307;-0,939;1,159;1,707;-0,041;0,269;-0,103;
20190809_155307;0,093;1,659;12,227;-0,342;-0,270;0,041;
20190809_155307;-0,594;7,827;16,652;0,046;-0,019;-0,047;
20190809_155307;-0,050;3,934;14,224;-0,198;-0,165;0,031;
20190809_155307;-1,417;1,920;-0,915;0,217;0,078;-0,048;
20190809_155308;-0,024;2,689;0,259;0,476;0,420;-0,111;
20190809_155308;-1,106;4,216;7,365;0,020;-0,145;0,072;
20190809_155308;-1,027;2,162;-1,946;0,695;0,067;-0,276;
20190809_155308;-0,340;-0,579;-2,907;0,444;-0,227;-0,215;
20190809_155308;-0,294;2,543;11,636;-0,077;0,050;-0,010;
20190809_155308;-0,941;1,137;0,910;0,124;0,061;-0,218;
20190809_155308;-2,581;5,341;14,301;-0,281;0,114;-0,141;
20190809_155308;5,827;8,241;29,372;-0,693;-0,321;0,562;
20190809_155308;-0,778;2,377;5,349;-0,546;-0,445;0,234;
20190809_155309;0,505;2,614;3,302;0,006;0,073;0,187;
20190809_155309;-0,347;3,417;4,429;0,178;0,446;-0,079;
20190809_155309;0,132;6,299;11,176;-0,037;0,075;-0,106;
20190809_155309;-1,755;3,419;3,440;0,108;-0,020;-0,030;
20190809_155309;-1,571;3,259;1,607;0,563;0,356;-0,175;
20190809_155309;-1,963;3,673;9,529;-0,096;-0,010;-0,128;
20190809_155309;-1,319;1,973;6,582;0,166;-0,108;0,074;
20190809_155309;-1,247;2,200;-0,783;0,255;0,127;0,157;
20190809_155309;-1,307;3,675;0,065;0,375;0,566;-0,182;
20190809_155309;-3,862;5,140;7,403;0,321;0,486;-0,554;
20190809_155310;0,438;5,365;10,008;0,026;-0,068;-0,040;
20190809_155310;0,634;4,037;4,420;-0,134;-0,157;0,005;
20190809_155310;-1,935;3,407;2,222;0,169;0,041;-0,134;
20190809_155310;-0,091;3,630;6,675;0,119;-0,005;-0,057;
20190809_155310;-1,097;0,936;0,105;-0,019;-0,051;0,025;
20190809_155310;-2,552;6,996;17,971;0,226;0,204;-0,046;
20190809_155310;0,752;6,586;22,189;0,176;0,040;-0,017;
20190809_155310;-1,865;2,442;-0,809;0,503;0,365;-0,030;
20190809_155310;-1,271;1,070;-0,472;1,207;0,607;-0,354;
20190809_155310;-3,589;4,592;4,094;0,636;-0,095;-0,472;
20190809_155311;-3,555;3,184;13,211;-0,169;0,015;-0,563;
20190809_155311;-1,106;5,279;3,582;-0,079;-0,056;-0,096;
20190809_155311;-0,735;2,133;4,077;-0,098;-0,040;-0,022;
20190809_155311;0,395;4,846;20,961;0,187;-0,012;0,025;
20190809_155311;-1,022;1,686;-0,163;0,458;-0,092;-0,092;
20190809_155311;0,563;1,458;-0,421;1,223;0,583;0,290;
20190809_155311;-0,711;0,620;-1,070;0,266;0,463;0,076;
20190809_155311;-1,935;4,324;12,917;-0,174;0,238;-0,113;
20190809_155311;1,741;3,917;2,131;0,378;-0,108;-0,002;
20190809_155312;0,256;3,802;15,481;-0,227;-0,125;-0,114;
20190809_155312;1,827;8,827;30,294;0,455;-0,432;-0,115;
20190809_155312;0,115;11,758;3,836;1,171;-0,329;0,079;
20190809_155312;-1,439;9,395;15,246;0,015;0,300;-0,071;
20190809_155312;2,263;6,579;22,798;-0,426;0,750;-0,247;
20190809_155312;3,761;6,519;4,690;-0,338;0,042;0,238;
20190809_155312;-0,103;3,239;2,777;-0,059;0,044;-0,109;
20190809_155312;-1,168;2,121;1,164;0,326;-0,093;-0,116;
20190809_155312;-1,853;4,851;10,008;0,236;-0,103;-0,089;
20190809_155312;-1,415;5,272;7,865;0,360;0,029;-0,200;
20190809_155313;-0,357;2,823;7,563;0,075;-0,224;0,075;
20190809_155313;-0,563;0,117;-1,053;0,182;-0,485;0,259;
20190809_155313;-2,500;6,390;22,096;-0,382;-0,233;-0,036;
20190809_155313;-2,212;6,400;6,883;-1,142;0,555;0,051;
20190809_155313;-0,663;3,620;1,899;0,345;0,291;-0,096;
20190809_155313;1,513;4,796;9,543;-0,076;0,259;-0,183;
20190809_155313;0,414;5,514;18,225;-0,293;0,048;-0,222;
20190809_155313;-0,481;2,406;6,790;0,001;-0,064;-0,149;
20190809_155313;-0,457;5,674;11,686;-0,025;-0,120;-0,008;
20190809_155314;-1,037;3,153;12,701;-0,022;0,099;-0,051;
20190809_155314;0,330;6,646;10,056;-0,067;-0,160;0,397;
20190809_155314;1,097;4,295;9,893;-0,396;-0,164;0,064;
20190809_155314;-0,522;3,230;-0,098;0,364;-0,038;-0,140;
20190809_155314;-2,981;3,448;7,312;0,668;-0,006;-0,351;
20190809_155314;-1,185;3,273;9,960;-0,085;-0,086;0,035;
20190809_155314;-1,729;6,098;3,934;0,262;0,189;-0,043;
20190809_155314;-0,381;1,587;-0,886;0,358;0,262;-0,058;
20190809_155314;0,177;2,622;6,091;-0,092;-0,003;-0,093;
20190809_155314;-0,893;7,020;8,035;-0,076;-0,031;-0,154;
20190809_155315;0,611;4,592;11,298;0,166;-0,061;-0,082;
20190809_155315;-0,680;5,624;9,665;-0,057;-0,114;-0,071;
20190809_155315;-1,264;4,029;5,028;0,129;-0,017;-0,023;
20190809_155315;-1,010;3,232;2,215;0,097;0,008;-0,031;
20190809_155315;-0,512;5,243;15,110;-0,322;-0,028;-0,050;
20190809_155315;0,000;5,619;13,005;-0,123;0,001;-0,154;
20190809_155315;0,711;5,059;14,643;-0,041;-0,138;-0,060;
20190809_155315;2,885;12,301;33,136;-0,765;-0,104;0,012;
20190809_155315;0,407;4,662;8,559;-0,905;-0,891;0,382;
20190809_155316;1,568;2,100;10,941;-0,132;-0,111;0,047;
20190809_155316;-0,213;8,389;13,405;-0,109;0,021;-0,051;
20190809_155316;-0,390;5,861;13,032;-0,185;0,082;-0,135;
20190809_155316;0,702;6,948;15,565;0,254;-0,108;-0,195;
20190809_155316;-1,109;6,993;15,433;-0,276;-0,234;0,016;
20190809_155316;-1,559;3,227;2,780;0,280;-0,081;-0,080;
20190809_155316;1,369;3,196;4,956;0,296;-0,093;0,235;
20190809_155316;1,039;4,695;1,156;0,465;-0,010;0,021;
20190809_155316;-0,690;4,779;3,314;-0,025;0,121;-0,040;
20190809_155316;-2,131;4,999;-0,618;0,693;0,505;-0,324;
20190809_155317;-0,685;1,786;6,606;-0,240;-0,051;-0,118;
20190809_155317;-0,249;5,509;3,625;0,645;-0,042;-0,187;
20190809_155317;-0,029;5,842;9,653;0,313;-0,085;-0,121;
20190809_155317;-1,822;5,203;10,010;0,167;-0,081;-0,106;
20190809_155317;-0,587;2,136;0,812;0,413;-0,007;-0,152;
20190809_155317;-2,636;11,042;15,639;0,811;0,279;-0,107;
20190809_155317;1,432;7,276;8,547;0,003;0,145;-0,009;
20190809_155317;1,875;5,334;15,814;-0,601;0,080;0,027;
20190809_155317;-1,511;-1,815;-3,618;1,013;-0,954;-0,026;
20190809_155318;0,644;7,836;24,967;-1,794;-0,539;0,356;
20190809_155318;-4,175;3,754;3,091;0,263;-0,156;-0,016;
20190809_155318;-1,252;4,851;15,045;-0,158;0,338;0,097;
20190809_155318;4,707;6,788;17,494;-0,146;0,093;0,616;
20190809_155318;1,712;9,048;18,325;-0,051;0,350;-0,036;
20190809_155318;1,693;8,801;20,949;-0,258;0,189;-0,063;
20190809_155318;-1,748;7,084;10,987;-0,288;0,196;-0,286;
20190809_155318;-0,438;3,443;-0,888;0,080;-0,168;-0,238;
20190809_155318;-0,840;5,346;9,459;0,073;-0,191;-0,191;
20190809_155319;0,230;5,966;15,443;-0,184;-0,239;-0,006;
20190809_155319;-0,012;7,496;15,182;-0,073;0,014;0,152;
20190809_155319;-1,008;6,438;5,459;-0,020;0,061;-0,092;
20190809_155319;-3,146;4,635;-0,002;0,886;0,083;-0,186;
20190809_155319;-0,505;1,671;1,642;0,817;0,184;-0,250;
20190809_155319;1,109;0,807;0,642;-0,073;-0,526;0,098;
20190809_155319;-0,256;6,304;8,519;0,214;-0,087;-0,156;
20190809_155319;-1,269;8,813;12,522;0,240;0,080;-0,058;
20190809_155319;1,609;5,143;8,485;-0,220;-0,177;0,111;
20190809_155319;-1,116;5,171;11,258;-0,272;-0,053;0,083;
20190809_155320;0,278;7,817;12,321;-0,149;-0,032;0,057;
20190809_155320;0,644;4,532;4,796;-0,023;0,027;-0,085;
20190809_155320;0,594;3,637;5,938;-0,031;-0,042;-0,103;
20190809_155320;-1,166;5,291;10,118;-0,010;-0,065;-0,072;
20190809_155320;-0,204;4,391;6,481;-0,098;-0,097;0,032;
20190809_155320;-0,053;5,504;8,169;0,251;0,088;-0,020;
20190809_155320;-0,543;6,740;10,329;-0,062;0,123;0,003;
20190809_155320;1,219;5,291;11,097;-0,221;-0,022;-0,038;
20190809_155320;1,410;7,520;12,596;-0,166;-0,121;-0,002;
20190809_155320;0,371;6,460;17,779;-0,282;0,000;-0,188;
20190809_155321;-0,452;2,804;-0,874;0,261;0,060;-0,007;
20190809_155321;0,706;4,630;4,925;0,326;-0,002;0,061;
20190809_155321;0,924;6,383;5,770;-0,593;-0,215;0,067;
20190809_155321;-3,144;5,933;12,057;-0,082;0,352;-0,181;
20190809_155321;0,491;6,565;12,507;-0,046;-0,002;0,043;
20190809_155321;0,766;4,927;4,113;0,013;-0,123;0,048;
20190809_155321;-0,848;3,941;10,472;0,244;-0,034;-0,066;
20190809_155321;1,966;5,993;12,122;-0,545;-0,245;0,033;
20190809_155321;-2,401;5,265;3,294;0,559;0,390;-0,009;
20190809_155322;0,848;5,622;7,942;0,129;0,127;0,024;
20190809_155322;-1,765;2,804;1,623;0,307;0,149;-0,046;
20190809_155322;-0,010;1,633;0,321;0,324;0,346;-0,169;
20190809_155322;2,267;3,826;3,967;0,168;-0,155;0,093;
20190809_155322;1,781;5,578;-0,012;0,554;0,147;-0,364;
20190809_155322;-1,444;6,297;1,317;0,688;0,171;-0,204;
20190809_155322;-2,037;3,249;-0,029;0,074;0,100;-0,065;
20190809_155322;-1,046;7,262;10,082;-0,105;-0,006;0,044;
20190809_155322;0,357;5,598;11,169;0,151;-0,084;-0,085;
20190809_155323;-1,362;4,099;1,142;-0,212;-0,244;0,001;
20190809_155323;0,919;4,642;10,618;0,048;-0,083;-0,100;
20190809_155323;-0,204;5,646;13,757;0,020;0,000;-0,056;
20190809_155323;1,231;5,935;13,228;-0,354;-0,264;0,179;
20190809_155323;1,434;5,672;6,668;0,091;-0,003;0,094;
20190809_155323;0,120;6,323;9,629;0,030;0,021;0,062;
20190809_155323;-0,508;6,033;8,593;0,299;0,150;0,060;
20190809_155323;-1,099;2,157;-1,920;0,438;0,187;-0,194;
20190809_155323;-0,069;4,451;11,794;-0,047;-0,066;-0,025;
20190809_155323;0,345;5,959;12,574;-0,685;-0,298;0,099;
20190809_155324;3,917;7,195;19,448;-0,096;0,019;0,299;
20190809_155324;-0,984;3,591;9,448;-0,585;-0,077;0,017;
20190809_155324;0,402;4,286;9,665;-0,141;-0,147;0,121;
20190809_155324;-1,434;6,096;4,547;0,434;0,198;-0,083;
20190809_155324;0,972;5,622;7,197;0,148;-0,023;0,080;
20190809_155324;-0,285;3,917;8,607;-0,143;-0,092;0,142;
20190809_155324;0,608;4,544;10,594;-0,382;-0,140;0,153;
20190809_155324;0,824;5,334;12,412;-0,308;-0,255;0,231;
20190809_155324;-0,874;6,127;6,776;0,221;0,280;0,136;
20190809_155325;0,718;2,761;1,221;-0,002;0,143;0,127;
20190809_155325;1,099;3,752;4,927;0,140;0,115;0,018;
20190809_155325;0,007;3,378;9,165;-0,108;-0,056;0,045;
20190809_155325;1,556;5,200;7,508;-0,064;-0,124;0,137;
20190809_155325;-1,092;3,816;9,244;0,016;-0,198;0,132;
20190809_155325;-1,204;7,020;10,822;0,389;0,109;0,140;
20190809_155325;-1,942;5,011;8,607;-0,153;-0,020;0,354;
20190809_155325;2,358;2,863;9,218;-0,143;0,182;0,350;
20190809_155325;1,377;5,394;12,136;-0,398;0,155;0,323;
20190809_155325;-0,682;5,069;4,384;-0,070;0,199;0,031;
20190809_155326;0,864;7,475;13,147;0,137;0,207;-0,043;
20190809_155326;0,053;4,214;12,646;-0,242;-0,065;0,089;
20190809_155326;-0,627;5,559;2,334;0,250;0,109;0,141;
20190809_155326;-1,104;4,685;5,725;0,324;0,320;-0,148;
20190809_155326;0,005;2,203;2,952;-0,102;-0,106;0,230;
20190809_155326;-1,446;7,214;13,534;0,192;0,233;0,044;
20190809_155326;2,306;7,326;1,623;0,471;0,323;0,128;
20190809_155326;-3,472;7,633;14,289;0,403;0,255;-0,238;
20190809_155326;5,827;8,243;19,711;-1,318;0,224;0,170;
20190809_155327;-2,471;10,788;13,884;0,172;-0,014;0,320;
20190809_155327;-1,070;13,482;22,762;0,331;0,401;0,042;
20190809_155327;-1,772;5,365;7,331;0,058;0,087;0,000;
20190809_155327;-0,249;7,027;9,342;0,060;0,061;0,064;
20190809_155327;-0,421;5,128;6,012;0,117;0,091;0,031;
20190809_155327;-1,894;6,531;8,691;0,078;0,018;0,019;
20190809_155327;1,592;6,424;11,349;-0,054;-0,193;0,138;
20190809_155327;-2,260;2,765;0,177;0,290;0,138;-0,013;
20190809_155327;0,299;6,852;7,755;0,189;0,035;0,199;
20190809_155327;-0,273;2,301;-0,421;0,326;0,320;0,058;
20190809_155328;-0,201;4,796;4,872;0,134;0,358;0,014;
20190809_155328;2,564;5,667;11,332;-0,053;0,214;0,153;
20190809_155328;0,860;7,096;13,937;-0,408;-0,097;0,032;
20190809_155328;-1,499;4,841;2,255;0,291;0,120;-0,023;
20190809_155328;-0,443;6,407;11,195;-0,236;-0,059;-0,002;
20190809_155328;1,063;4,207;9,663;-0,177;-0,269;0,063;
20190809_155328;-1,185;0,893;-1,324;0,463;-0,003;-0,098;
20190809_155328;-0,491;-0,385;-0,405;-7,305;0,588;0,582;
20190809_155328;-0,625;-1,369;9,680;-1,975;-0,875;0,574;
20190809_155329;6,029;1,130;4,029;-0,324;-0,431;1,151;
20190809_155329;1,700;3,481;6,560;-0,691;-0,086;0,268;
20190809_155329;-1,319;3,680;7,329;-0,053;0,043;0,091;
20190809_155329;1,178;4,329;8,811;0,148;0,026;0,070;
20190809_155329;-0,026;2,535;10,628;-0,010;-0,174;0,111;
20190809_155329;-0,266;3,745;10,393;0,008;-0,169;0,197;
20190809_155329;-1,990;4,867;10,374;0,223;0,096;0,207;
20190809_155329;-1,346;3,457;5,136;0,234;0,220;0,294;
20190809_155329;-0,448;4,681;11,167;0,027;0,225;0,342;
20190809_155329;3,369;3,393;8,179;0,127;0,114;0,482;
20190809_155330;-0,405;-0,603;-6,335;0,869;0,560;0,080;
20190809_155330;2,856;14,222;2,025;1,942;2,496;0,267;
20190809_155330;1,149;4,559;7,475;1,214;-0,169;0,278;
20190809_155330;0,053;2,916;12,665;-0,209;-0,080;0,126;
20190809_155330;-0,795;3,469;11,820;-0,158;0,009;0,090;
20190809_155330;-0,177;4,187;4,087;-0,008;0,146;0,143;
20190809_155330;0,175;4,827;9,043;-0,002;0,226;0,082;
20190809_155330;-0,570;3,158;6,754;-0,139;0,169;0,050;
20190809_155330;0,656;3,407;16,214;-0,203;0,105;0,015;
20190809_155330;-0,745;0,620;-0,706;0,482;-1,589;0,313;
20190809_155331;-2,456;2,205;16,503;-1,109;0,683;-0,733;
20190809_155331;2,799;5,806;15,878;0,373;0,362;-0,179;
20190809_155331;-3,287;4,523;2,318;0,329;0,284;-0,287;
20190809_155331;0,333;4,602;4,013;0,031;-0,097;-0,057;
20190809_155331;-2,286;0,994;2,531;0,116;0,308;-0,305;
20190809_155331;-0,290;4,554;7,324;-0,053;0,122;-0,080;
20190809_155331;-1,472;2,421;3,457;-0,147;-0,131;-0,100;
20190809_155331;0,093;1,724;3,256;-0,127;-0,017;-0,247;
20190809_155331;3,024;7,185;31,893;-0,509;-0,188;-0,193;
20190809_155332;-1,192;-1,350;-2,705;-1,374;-0,001;0,152;
20190809_155332;0,462;7,875;-0,517;2,973;1,071;-1,389;
20190809_155332;0,637;3,637;23,317;0,044;-0,715;0,008;
20190809_155332;-3,282;1,243;5,569;0,010;0,319;-0,733;
20190809_155332;0,283;4,583;10,618;-0,245;-0,268;-0,186;
20190809_155332;-0,215;2,454;5,150;-0,004;0,003;-0,398;
20190809_155332;0,400;3,292;9,383;-0,007;0,015;-0,385;
20190809_155332;0,821;5,255;10,142;0,132;0,030;-0,480;
20190809_155332;-0,924;2,358;-0,970;0,137;0,050;-0,517;
20190809_155333;1,460;12,852;48,138;0,352;-0,180;-0,418;
20190809_155333;-4,755;6,314;22,939;-1,424;0,839;-1,277;
20190809_155333;4,559;7,913;7,714;0,401;-0,586;-0,403;
20190809_155333;-4,906;5,741;14,930;0,097;-0,609;-1,239;
20190809_155333;-4,391;3,757;13,757;0,208;0,500;-0,738;
20190809_155333;-0,438;3,041;21,859;-0,309;-0,326;-0,516;
20190809_155333;2,310;0,582;2,509;-1,918;0,009;-0,471;
20190809_155333;0,721;1,269;0,098;0,004;-0,513;-0,444;
20190809_155333;-1,688;0,460;-0,481;0,391;-0,464;-0,810;
20190809_155333;-1,566;2,064;4,204;0,669;-0,380;-0,859;
20190809_155334;-0,599;1,664;0,515;0,762;-0,265;-0,866;
20190809_155334;-1,559;0,010;1,956;1,055;-0,147;-0,830;
20190809_155334;0,369;3,326;5,813;0,487;-0,104;-0,578;
20190809_155334;2,622;2,416;12,526;0,426;-0,309;-0,730;
20190809_155334;-0,467;3,740;3,694;0,425;-0,520;-0,639;
20190809_155334;-0,831;3,795;11,870;0,388;-0,685;-0,715;
20190809_155334;-2,061;4,379;19,072;0,254;-0,721;-0,607;
20190809_155334;-4,978;6,445;13,982;-0,001;-0,723;-0,077;
20190809_155334;-1,563;3,122;8,861;0,207;-0,389;0,149;
20190809_155335;1,123;4,441;14,803;-0,349;-0,324;0,166;
20190809_155335;3,153;4,506;11,320;-0,762;-0,550;0,354;
20190809_155335;-2,986;4,334;11,210;0,288;-0,137;-0,161;
20190809_155335;-2,844;3,594;4,899;0,606;0,003;-0,079;
20190809_155335;-2,591;1,841;1,985;0,554;0,372;0,115;
20190809_155335;0,943;7,673;18,263;0,512;0,043;0,207;
20190809_155335;-2,107;7,058;30,677;-0,737;0,423;0,591;
20190809_155335;0,371;6,275;13,575;-0,710;0,818;-0,288;
20190809_155335;1,199;4,908;8,435;-0,489;0,431;-0,038;
20190809_155335;-0,383;1,827;1,030;0,346;-0,403;0,031;
20190809_155336;2,447;2,480;11,861;-0,428;-0,837;0,178;
20190809_155336;-3,132;7,125;9,795;0,151;-0,397;0,068;
20190809_155336;-3,129;4,563;15,136;-0,128;-0,209;0,241;
20190809_155336;-0,014;2,174;3,534;-0,057;-0,150;0,456;
20190809_155336;-0,936;4,022;4,142;0,368;0,293;0,198;
20190809_155336;-1,628;1,132;-2,437;0,315;0,349;0,274;
20190809_155336;0,275;5,205;13,053;0,273;0,413;-0,068;
20190809_155336;1,135;1,458;2,974;-0,167;-0,161;0,149;
20190809_155336;-1,257;4,125;9,886;-0,241;-0,125;0,056;
20190809_155337;0,251;5,277;13,333;-0,131;-0,059;0,062;
20190809_155337;-2,710;3,007;3,768;0,078;0,148;0,025;
20190809_155337;0,019;3,903;2,935;0,124;-0,016;0,155;
20190809_155337;0,685;5,279;16,486;-0,374;-0,007;0,000;
20190809_155337;0,924;4,039;10,326;0,099;-0,006;-0,051;
20190809_155337;-1,690;7,341;11,009;0,016;-0,089;-0,095;
20190809_155337;-3,749;4,429;11,961;0,311;0,066;-0,123;
20190809_155337;0,292;0,984;7,736;0,103;-0,103;0,125;
20190809_155337;-0,359;3,596;5,358;0,036;-0,189;0,230;
20190809_155337;0,060;0,934;5,586;-0,213;-0,141;0,324;
20190809_155338;-0,802;1,451;-0,781;-0,096;-0,239;0,453;
20190809_155338;-1,039;2,930;5,057;0,443;-0,041;0,080;
20190809_155338;2,282;3,163;7,262;-0,229;-0,198;0,373;
20190809_155338;1,729;1,604;6,455;-0,132;-0,260;0,227;
20190809_155338;-0,275;2,452;7,412;-0,253;-0,381;0,293;
20190809_155338;-0,294;2,119;7,151;-0,079;0,013;0,146;
20190809_155338;-1,427;3,445;6,615;0,119;0,126;0,169;
20190809_155338;-0,951;4,259;14,255;0,035;0,224;0,221;
20190809_155338;0,031;4,944;14,435;-0,050;0,403;0,058;
20190809_155339;1,369;3,038;5,902;-0,086;0,091;0,128;
20190809_155339;-3,282;4,920;10,135;0,151;0,126;-0,103;
20190809_155339;-1,954;4,537;6,184;0,197;0,344;-0,279;
20190809_155339;-2,289;3,610;6,998;-0,162;-0,364;0,147;
20190809_155339;2,744;1,769;9,443;-0,362;-0,499;0,301;
20190809_155339;0,395;3,201;8,607;0,057;0,073;0,111;
20190809_155339;-1,463;6,821;16,752;0,011;0,018;0,208;
20190809_155339;0,809;3,701;10,949;-0,064;0,063;0,370;
20190809_155339;-0,294;3,809;9,311;-0,029;0,288;0,262;
20190809_155339;1,293;2,892;6,879;-0,149;0,017;0,252;
20190809_155340;2,188;5,272;12,704;-0,188;0,077;-0,129;
20190809_155340;-1,417;3,543;9,050;-0,129;-0,152;-0,228;
20190809_155340;-2,167;3,263;10,204;0,086;-0,119;-0,085;
20190809_155340;-0,539;5,962;16,752;0,207;0,122;0,047;
20190809_155340;-2,679;3,608;8,957;0,035;0,168;0,097;
20190809_155340;-0,177;4,087;7,341;-0,067;-0,025;0,358;
20190809_155340;-0,268;4,056;9,979;0,079;0,228;0,195;
20190809_155340;0,474;5,643;18,486;0,153;0,496;-0,091;
20190809_155340;2,969;4,207;7,848;-0,116;-0,048;0,058;
20190809_155341;-2,737;3,043;3,982;0,123;-0,042;-0,023;
20190809_155341;-0,065;6,155;16,819;-0,234;-0,213;0,222;
20190809_155341;-3,227;6,021;11,487;0,089;0,325;0,044;
20190809_155341;-1,032;3,421;6,397;0,168;0,217;0,150;
20190809_155341;1,305;1,482;7,922;-0,142;0,165;0,181;
20190809_155341;-1,106;5,418;11,133;-0,112;0,238;0,081;
20190809_155341;0,570;1,647;6,184;-0,059;0,097;0,142;
20190809_155341;-0,871;3,970;4,360;0,119;0,234;0,043;
20190809_155341;0,828;3,759;12,210;-0,323;-0,090;0,067;
20190809_155342;1,396;3,455;8,387;-0,161;-0,136;0,006;
20190809_155342;-1,420;2,284;6,359;0,091;0,025;-0,098;
20190809_155342;0,939;4,063;13,695;-0,051;0,057;0,047;
20190809_155342;0,836;3,026;6,644;-0,010;0,072;0,031;
20190809_155342;-1,990;6,108;12,589;-0,032;0,168;-0,093;
20190809_155342;0,395;4,173;12,273;-0,051;0,074;-0,051;
20190809_155342;-1,946;5,356;6,618;0,360;0,164;-0,082;
20190809_155342;-1,092;4,207;3,845;0,087;0,022;-0,059;
20190809_155342;-1,037;5,160;12,347;-0,161;-0,202;-0,003;
20190809_155343;0,785;1,738;5,069;0,187;-0,023;-0,039;
20190809_155343;0,031;2,605;11,200;0,013;-0,350;0,000;
20190809_155343;-1,635;4,360;5,480;0,190;-0,005;-0,054;
20190809_155343;-0,067;3,709;7,001;-0,065;-0,092;0,175;
20190809_155343;-0,242;2,995;6,328;0,232;0,241;0,129;
20190809_155343;0,304;2,073;10,618;-0,150;0,143;0,132;
20190809_155343;-1,489;5,006;6,673;0,068;0,360;-0,033;
20190809_155343;0,651;2,854;1,046;0,036;0,046;0,047;
20190809_155343;0,704;5,327;7,472;0,256;0,041;-0,073;
20190809_155343;0,601;1,365;12,854;-0,244;-0,217;-0,064;
20190809_155344;-2,744;4,286;9,392;-0,119;-0,139;0,002;
20190809_155344;-0,333;2,988;6,486;-0,014;-0,121;-0,008;
20190809_155344;-0,227;4,334;13,515;-0,164;-0,169;0,108;
20190809_155344;0,340;3,383;10,731;-0,017;0,012;-0,014;
20190809_155344;-0,953;3,630;5,282;-0,128;-0,084;0,122;
20190809_155344;-1,504;5,219;6,191;-0,071;0,072;-0,014;
20190809_155344;-1,068;2,696;0,618;0,556;0,218;-0,164;
20190809_155344;-1,302;1,676;-0,572;0,750;0,531;-0,303;
20190809_155344;-0,019;3,316;8,253;-0,331;-0,416;0,264;
20190809_155345;0,558;5,006;9,139;-0,245;-0,230;0,144;
20190809_155345;-1,568;4,820;15,275;0,030;0,065;-0,062;
20190809_155345;-0,555;7,784;19,690;-0,225;-0,075;0,056;
20190809_155345;-0,438;6,843;15,517;-0,045;0,026;0,033;
20190809_155345;-0,953;7,314;16,755;0,188;0,239;-0,089;
20190809_155345;0,697;4,070;9,155;0,290;0,039;0,024;
20190809_155345;-1,973;5,722;3,543;0,403;0,178;-0,128;
20190809_155345;1,403;5,294;20,241;-1,202;-0,743;0,281;
20190809_155345;-1,329;2,830;11,897;0,150;-0,570;-0,202;
20190809_155345;-5,021;9,838;7,858;-0,061;0,120;-0,405;
20190809_155346;-0,759;0,524;7,405;-0,161;-0,195;0,083;
20190809_155346;1,597;2,813;2,437;-0,019;0,016;0,188;
20190809_155346;-1,935;3,120;-0,127;0,060;0,005;0,228;
20190809_155346;1,571;3,464;12,155;0,046;0,148;0,044;
20190809_155346;4,063;0,496;6,438;-1,147;-0,454;0,348;
20190809_155346;-1,901;5,346;11,037;-0,048;0,001;-0,188;
20190809_155346;-2,253;4,384;8,588;0,110;0,179;-0,245;
20190809_155346;0,263;3,689;7,207;0,054;-0,091;-0,058;
20190809_155346;3,476;3,773;15,622;-0,163;-0,228;-0,005;
20190809_155347;0,072;6,316;15,189;0,149;-0,080;-0,106;
20190809_155347;-1,245;2,528;-0,709;0,446;-0,115;-0,080;
20190809_155347;0,081;3,328;18,263;-0,180;-0,114;0,119;
20190809_155347;-3,089;0,998;0,433;0,211;0,287;-0,016;
20190809_155347;-2,588;3,522;0,668;0,185;0,403;0,096;
20190809_155347;3,541;5,095;16,036;0,040;0,201;0,085;
20190809_155347;-2,555;1,935;6,127;-0,153;-0,046;-0,071;
20190809_155347;-0,122;7,626;13,805;0,147;-0,117;0,030;
20190809_155347;-2,251;2,401;6,663;0,051;-0,008;0,059;
20190809_155347;0,359;6,127;13,192;-0,015;0,124;0,110;
20190809_155348;-2,969;4,975;5,411;-0,226;0,173;0,013;
20190809_155348;0,146;4,276;7,446;0,066;0,196;0,000;
20190809_155348;0,014;1,164;-0,158;0,069;0,018;-0,083;
20190809_155348;0,845;4,894;7,637;-0,099;-0,228;-0,004;
20190809_155348;-1,602;3,314;5,928;0,233;0,024;-0,134;
20190809_155348;-1,858;1,037;-1,913;0,791;0,039;-0,234;
20190809_155348;-0,141;2,655;4,705;0,119;0,103;0,090;
20190809_155348;0,596;3,637;7,424;-0,410;-0,414;0,305;
20190809_155348;0,570;4,192;10,463;-0,154;0,106;-0,077;
20190809_155349;-1,616;3,828;15,048;0,045;-0,032;-0,060;
20190809_155349;0,979;6,342;11,815;0,081;-0,022;-0,041;
20190809_155349;1,439;4,037;13,601;0,048;-0,001;-0,114;
20190809_155349;-1,401;2,301;-0,177;0,135;-0,032;-0,093;
20190809_155349;-1,501;1,276;0,273;0,311;0,125;0,019;
20190809_155349;-0,235;-0,041;-1,566;0,769;0,331;-0,091;
20190809_155349;0,642;1,484;10,056;-1,751;0,226;-0,175;
20190809_155349;2,346;0,170;10,709;-0,707;-0,050;0,141;
20190809_155349;-0,816;0,965;-0,323;0,200;0,011;-0,136;
20190809_155349;-0,666;5,171;7,645;0,178;-0,334;-0,118;
20190809_155350;-0,340;-0,515;8,473;-0,280;-0,317;0,049;
20190809_155350;0,639;3,675;16,458;0,013;-0,216;0,137;
20190809_155350;-3,316;7,041;7,302;-0,068;0,054;0,165;
20190809_155350;-2,140;5,138;10,949;0,031;0,296;-0,075;
