Timestamp;Accel_x;Accel_y;Accel_z;Gyro_x;Gyro_y;Gyro_z;
20200827_194509;0.043;4.185;9.584;0.030;0.050;0.757;
20200827_194509;1.413;5.456;8.566;-0.004;0.179;0.474;
20200827_194509;1.178;3.699;7.314;0.017;0.122;0.062;
20200827_194509;1.202;4.314;8.842;0.038;0.033;-0.281;
20200827_194509;0.984;4.642;7.954;-0.034;-0.009;-0.189;
20200827_194509;0.134;4.604;9.708;-0.028;0.015;0.148;
20200827_194510;1.101;4.772;7.065;0.011;0.072;0.059;
20200827_194510;0.826;4.820;9.629;-0.041;-0.029;-0.169;
20200827_194510;1.209;5.387;7.118;-0.010;-0.019;-0.169;
20200827_194510;1.041;4.786;8.897;0.001;-0.038;-0.274;
20200827_194510;1.341;4.834;8.112;0.005;-0.123;-0.353;
20200827_194510;-0.505;4.884;7.879;0.011;-0.074;-0.101;
20200827_194510;-1.350;5.076;6.850;0.021;0.020;0.398;
20200827_194510;0.441;5.605;8.686;0.019;0.099;0.517;
20200827_194510;1.087;5.016;8.435;-0.029;0.141;0.047;
20200827_194510;0.534;6.227;8.193;0.014;0.015;-0.259;
20200827_194511;-0.271;4.085;9.615;-0.071;-0.043;-0.219;
20200827_194511;-1.331;3.840;9.843;-0.020;-0.128;0.065;
20200827_194511;-0.278;5.449;8.995;0.030;-0.058;0.155;
20200827_194511;0.022;5.021;6.852;0.015;-0.075;0.217;
20200827_194511;1.693;4.233;9.529;-0.002;0.010;0.447;
20200827_194511;-0.280;4.733;9.972;-0.023;0.070;0.286;
20200827_194511;1.053;4.329;8.885;-0.045;0.079;0.254;
20200827_194511;1.939;3.587;8.384;-0.036;0.092;-0.152;
20200827_194511;-0.713;5.394;9.134;0.005;0.127;0.023;
20200827_194512;0.972;4.748;9.038;0.041;0.133;0.081;
20200827_194512;-0.924;4.604;8.229;0.004;0.140;0.003;
20200827_194512;0.745;5.329;8.626;-0.025;0.141;0.081;
20200827_194512;0.587;4.590;9.354;-0.021;0.069;-0.162;
20200827_194512;1.164;4.525;9.503;-0.055;0.060;-0.079;
20200827_194512;0.050;5.748;7.427;0.068;0.043;-0.169;
20200827_194512;1.453;3.701;7.226;0.048;-0.060;-0.426;
20200827_194512;1.132;5.126;4.683;0.027;-0.143;-0.476;
20200827_194512;-0.414;5.744;4.882;0.043;-0.128;-0.175;
20200827_194512;0.053;4.286;7.827;0.027;-0.178;-0.083;
20200827_194513;0.491;2.811;9.574;-0.069;0.001;0.250;
20200827_194513;-0.017;4.997;8.131;-0.049;-0.025;0.018;
20200827_194513;0.893;4.970;10.060;0.008;0.008;-0.014;
20200827_194513;0.170;4.168;9.912;-0.004;-0.028;-0.101;
20200827_194513;-1.003;5.631;9.905;-0.014;0.046;0.142;
20200827_194513;0.500;4.226;9.416;-0.069;0.006;0.105;
20200827_194513;1.343;4.436;8.337;0.002;-0.056;-0.124;
20200827_194513;0.364;4.372;8.270;0.013;-0.065;-0.187;
20200827_194513;0.860;4.678;8.452;-0.006;-0.141;-0.189;
20200827_194514;-0.127;4.695;9.177;-0.040;-0.176;-0.034;
20200827_194514;-0.048;4.195;9.230;0.015;-0.145;0.239;
20200827_194514;0.048;5.054;19.539;-0.064;-0.018;0.491;
20200827_194514;-0.144;3.026;6.670;-0.019;0.103;0.702;
20200827_194514;1.707;5.215;6.462;0.106;0.296;0.596;
20200827_194514;1.271;-0.163;7.966;-0.102;0.232;-0.125;
20200827_194514;1.566;7.202;5.016;0.114;0.155;-0.259;
20200827_194514;-0.393;2.595;7.788;0.000;0.225;-0.140;
20200827_194514;1.073;4.726;7.458;0.011;0.051;-0.414;
20200827_194514;0.381;6.292;9.349;0.029;-0.051;-0.415;
20200827_194515;0.711;4.283;10.465;0.015;-0.127;-0.159;
20200827_194515;0.141;5.533;7.798;0.008;-0.141;-0.030;
20200827_194515;0.242;5.282;7.259;0.022;-0.082;0.222;
20200827_194515;1.214;4.628;7.743;0.012;-0.055;0.076;
20200827_194515;0.414;4.269;8.578;0.000;0.021;0.089;
20200827_194515;0.883;4.872;8.267;0.008;0.022;0.081;
20200827_194515;-0.242;4.453;8.612;-0.016;0.052;0.019;
20200827_194515;-0.438;5.253;9.543;0.011;0.084;0.150;
20200827_194515;0.223;4.372;10.436;-0.056;0.082;-0.015;
20200827_194516;0.759;4.547;9.266;-0.017;-0.016;-0.274;
20200827_194516;0.299;4.211;6.632;0.022;-0.094;-0.311;
20200827_194516;-0.474;4.566;7.396;0.042;-0.127;-0.056;
20200827_194516;-0.124;5.298;7.973;0.050;-0.057;0.256;
20200827_194516;0.735;5.667;8.107;0.005;0.001;0.179;
20200827_194516;1.252;4.594;7.879;0.001;0.022;-0.024;
20200827_194516;-0.208;4.741;8.377;-0.002;0.051;0.018;
20200827_194516;1.779;5.171;7.147;0.000;0.066;0.087;
20200827_194516;0.369;5.181;7.506;-0.003;0.049;-0.187;
20200827_194516;-0.060;5.485;7.092;0.020;0.064;0.046;
20200827_194517;0.462;4.930;8.863;-0.019;0.065;0.109;
20200827_194517;0.213;4.377;8.990;-0.033;0.021;-0.026;
20200827_194517;1.324;5.842;9.761;-0.008;-0.062;-0.352;
20200827_194517;0.213;4.118;9.488;-0.031;-0.164;-0.293;
20200827_194517;0.656;4.554;8.940;-0.031;-0.113;0.035;
20200827_194517;1.604;5.899;7.566;0.019;-0.188;-0.234;
20200827_194517;0.500;5.064;10.245;-0.024;-0.144;0.038;
20200827_194517;-0.977;4.322;9.883;-0.020;-0.011;0.456;
20200827_194517;0.462;4.934;10.180;-0.021;0.059;0.441;
20200827_194518;0.438;4.650;8.035;0.012;0.067;0.259;
20200827_194518;0.907;6.076;7.920;0.028;0.115;0.172;
20200827_194518;0.129;4.369;8.981;-0.011;0.144;0.153;
20200827_194518;1.410;4.597;11.483;0.002;0.021;-0.141;
20200827_194518;-0.180;4.456;7.767;-0.018;0.029;-0.153;
20200827_194518;0.448;4.724;8.705;-0.049;-0.023;0.069;
20200827_194518;1.070;5.473;7.463;0.004;0.007;-0.005;
20200827_194518;1.080;4.298;10.831;-0.019;0.056;0.101;
20200827_194518;0.117;4.578;10.149;-0.005;0.182;0.233;
20200827_194518;1.396;4.144;7.226;0.000;0.209;0.096;
20200827_194519;1.762;4.597;8.562;-0.016;0.133;-0.366;
20200827_194519;1.638;5.334;6.622;0.025;-0.008;-0.647;
20200827_194519;-0.769;3.824;8.887;-0.030;-0.084;-0.346;
20200827_194519;-0.187;4.561;9.653;0.006;-0.083;-0.117;
20200827_194519;1.269;4.657;8.040;-0.023;-0.179;-0.140;
20200827_194519;0.184;5.531;8.583;0.011;-0.226;-0.163;
20200827_194519;0.692;5.085;9.048;-0.021;-0.211;0.080;
20200827_194519;2.459;3.733;7.982;-0.007;-0.018;-0.174;
20200827_194519;-0.467;4.331;9.201;-0.053;-0.146;-0.016;
20200827_194520;0.622;4.310;10.125;-0.056;-0.080;0.230;
20200827_194520;0.634;4.216;8.461;-0.051;0.025;0.198;
20200827_194520;0.345;4.676;8.411;-0.011;0.069;0.004;
20200827_194520;-2.447;4.817;6.919;0.032;0.037;-0.068;
20200827_194520;0.340;4.372;6.390;-0.006;-0.026;0.242;
20200827_194520;-0.754;5.066;10.484;-0.028;0.064;0.277;
20200827_194520;0.527;3.922;9.993;-0.012;0.062;0.080;
20200827_194520;1.006;3.689;8.899;-0.011;-0.090;-0.286;
20200827_194520;0.510;4.238;7.458;0.028;-0.023;-0.048;
20200827_194520;0.101;4.798;9.270;0.047;-0.019;0.167;
20200827_194521;0.965;4.302;10.324;-0.052;-0.014;0.059;
20200827_194521;0.117;4.312;9.914;-0.038;0.103;0.324;
20200827_194521;0.110;4.377;8.164;0.023;0.112;0.136;
20200827_194521;0.979;4.187;6.242;0.019;0.140;0.071;
20200827_194521;-0.022;4.247;10.501;-0.033;0.140;0.101;
20200827_194521;1.142;4.542;10.659;-0.034;0.094;-0.166;
20200827_194521;1.046;3.953;8.918;-0.061;0.025;-0.405;
20200827_194521;-0.108;4.068;7.293;0.006;0.030;0.015;
20200827_194521;1.216;3.792;8.729;-0.001;0.003;-0.014;
20200827_194521;0.766;5.504;8.413;0.015;-0.006;-0.197;
20200827_194522;-0.093;4.159;10.063;-0.019;-0.035;-0.136;
20200827_194522;0.785;4.580;8.452;-0.056;-0.016;-0.057;
20200827_194522;-1.298;5.100;9.041;0.000;0.009;-0.090;
20200827_194522;-0.031;3.962;7.350;0.021;-0.029;-0.050;
20200827_194522;-0.124;5.432;8.456;0.022;-0.001;0.134;
20200827_194522;-0.194;3.986;11.688;-0.077;0.043;0.105;
20200827_194522;0.460;3.891;9.859;-0.031;0.019;-0.126;
20200827_194522;0.622;4.403;7.989;0.009;-0.032;-0.238;
20200827_194522;0.527;3.654;7.132;-0.012;-0.109;-0.301;
20200827_194523;-0.160;6.031;10.077;-0.069;-0.113;-0.142;
20200827_194523;0.108;4.065;9.929;-0.029;-0.129;0.021;
20200827_194523;-0.014;3.847;9.086;-0.024;-0.019;0.261;
20200827_194523;0.278;4.863;8.183;0.019;-0.076;0.097;
20200827_194523;0.630;4.164;6.924;0.013;0.011;0.101;
20200827_194523;-0.479;5.322;9.759;-0.023;-0.003;0.095;
20200827_194523;0.074;4.362;8.923;-0.003;0.010;0.204;
20200827_194523;0.122;4.274;8.413;-0.002;0.021;0.123;
20200827_194523;0.895;4.824;8.174;0.010;0.068;0.144;
20200827_194523;0.388;4.836;10.432;-0.021;0.004;-0.042;
20200827_194524;0.967;4.738;10.206;-0.033;0.041;0.003;
20200827_194524;0.895;4.029;8.442;-0.022;-0.019;-0.133;
20200827_194524;0.393;4.942;9.282;-0.021;0.014;-0.005;
20200827_194524;-0.278;4.865;7.922;0.008;0.014;0.078;
20200827_194524;0.393;4.398;10.640;-0.001;0.002;0.070;
20200827_194524;0.716;4.104;7.453;-0.052;-0.030;-0.002;
20200827_194524;1.104;3.747;3.706;0.112;-0.035;-0.015;
20200827_194524;0.144;3.223;9.687;0.023;-0.000;0.141;
20200827_194524;1.109;12.280;7.393;0.223;-0.046;0.104;
20200827_194525;1.858;4.085;8.315;-0.051;0.007;0.205;
20200827_194525;1.008;4.922;10.218;-0.129;0.001;0.096;
20200827_194525;-0.263;4.745;10.412;-0.029;0.021;0.079;
20200827_194525;0.383;4.032;9.263;-0.007;0.066;0.151;
20200827_194525;0.773;4.444;7.128;0.000;-0.007;-0.035;
20200827_194525;-0.014;4.968;6.603;0.027;-0.055;-0.011;
20200827_194525;-0.297;4.326;8.576;-0.034;-0.026;0.207;
20200827_194525;-0.699;5.033;8.456;-0.011;0.063;0.505;
20200827_194525;1.489;5.262;6.924;0.061;0.124;0.539;
20200827_194525;1.647;4.578;9.000;0.053;0.153;0.295;
20200827_194526;2.033;2.909;8.554;0.045;0.076;-0.118;
20200827_194526;0.290;4.982;7.982;0.016;0.066;-0.063;
20200827_194526;-0.091;5.581;7.932;0.008;0.094;0.237;
20200827_194526;1.585;3.215;8.291;0.042;0.057;0.203;
20200827_194526;-0.393;2.880;5.066;0.046;0.109;0.164;
20200827_194526;2.176;4.259;7.772;-0.021;0.117;0.274;
20200827_194526;-0.089;5.124;9.503;0.037;0.185;0.154;
20200827_194526;1.092;4.278;8.138;0.031;0.133;-0.008;
20200827_194526;0.038;4.769;9.582;0.039;0.097;-0.029;
20200827_194527;0.436;4.590;8.456;0.013;0.186;0.276;
20200827_194527;0.907;5.114;7.276;0.122;0.138;-0.024;
20200827_194527;-0.165;4.264;9.732;-0.041;0.083;-0.027;
20200827_194527;2.346;4.587;7.180;-0.003;0.086;0.010;
20200827_194527;1.721;4.403;8.425;-0.088;0.111;-0.040;
20200827_194527;0.589;5.435;6.807;0.035;0.038;-0.223;
20200827_194527;0.445;3.539;8.854;-0.007;-0.047;-0.147;
20200827_194527;0.204;3.472;7.120;-0.008;0.052;0.032;
20200827_194527;-0.108;4.264;6.965;-0.008;0.029;-0.076;
20200827_194527;-0.431;4.702;9.285;0.036;-0.025;-0.144;
20200827_194528;-0.156;3.620;5.432;0.042;0.063;0.019;
20200827_194528;0.110;6.108;4.506;0.023;0.046;0.178;
20200827_194528;1.530;4.475;10.719;-0.074;0.055;-0.051;
20200827_194528;0.304;5.801;10.819;-0.077;0.036;-0.148;
20200827_194528;1.757;3.809;10.506;-0.080;0.019;-0.293;
20200827_194528;1.214;6.007;1.810;0.087;-0.130;-0.670;
20200827_194528;-0.970;6.201;17.200;0.082;-0.246;-0.567;
20200827_194528;0.400;3.917;24.057;-0.050;-0.208;0.116;
20200827_194528;1.415;7.324;12.828;-0.130;-0.125;0.108;
20200827_194529;-1.674;9.498;13.357;-0.111;-0.178;-0.036;
20200827_194529;-4.041;-0.984;7.412;0.041;0.124;0.603;
20200827_194529;0.575;1.901;11.890;0.104;0.042;0.176;
20200827_194529;0.783;4.750;10.714;-0.032;0.085;-0.109;
20200827_194529;0.625;5.064;8.758;0.068;-0.014;-0.421;
20200827_194529;0.572;3.996;9.479;0.014;-0.087;-0.430;
20200827_194529;-0.984;3.634;14.928;0.030;-0.068;-0.274;
20200827_194529;-1.592;5.358;15.251;-0.022;-0.093;-0.196;
20200827_194529;-0.342;3.007;13.870;-0.002;-0.047;0.093;
20200827_194529;0.237;6.560;9.254;-0.225;-0.013;-0.163;
20200827_194530;0.148;3.778;8.559;-0.076;-0.052;-0.209;
20200827_194530;0.879;5.016;6.857;0.175;-0.035;-0.194;
20200827_194530;-0.256;5.631;4.496;0.212;-0.061;-0.101;
20200827_194530;1.235;5.665;6.682;-0.034;-0.104;-0.114;
20200827_194530;0.496;4.465;9.050;-0.051;-0.094;-0.242;
20200827_194530;-0.661;3.091;9.239;-0.103;-0.033;0.102;
20200827_194530;0.117;3.436;8.492;0.000;-0.068;-0.097;
20200827_194530;0.230;2.727;14.597;-0.005;-0.130;-0.228;
20200827_194530;0.333;4.283;4.252;-0.011;-0.115;-0.223;
20200827_194531;-0.704;5.959;5.490;0.033;-0.148;-0.147;
20200827_194531;-1.506;6.299;5.557;0.161;-0.124;0.033;
20200827_194531;-0.587;3.194;31.354;-0.253;-0.067;0.213;
20200827_194531;2.164;3.788;13.779;-0.100;-0.171;-0.088;
20200827_194531;-2.612;1.750;3.931;-0.108;-0.073;0.289;
20200827_194531;1.844;7.614;6.881;-0.191;-0.059;0.104;
20200827_194531;0.627;9.081;8.583;0.041;0.009;0.180;
20200827_194531;-0.603;4.369;8.674;0.047;0.006;-0.001;
20200827_194531;0.115;3.594;8.444;0.010;0.019;0.154;
20200827_194531;-0.958;5.320;9.237;0.028;0.122;0.268;
20200827_194532;0.445;3.807;10.937;-0.004;0.097;0.088;
20200827_194532;2.124;6.069;8.143;0.033;0.048;-0.240;
20200827_194532;0.426;3.795;6.711;0.086;-0.134;-0.768;
20200827_194532;0.596;4.448;9.313;0.005;-0.137;-0.350;
20200827_194532;-0.170;6.239;10.096;0.003;-0.077;-0.106;
20200827_194532;-0.093;2.861;10.041;-0.088;-0.083;-0.062;
20200827_194532;0.237;3.519;8.037;-0.105;-0.061;0.055;
20200827_194532;1.233;5.076;17.351;-0.219;-0.087;0.136;
20200827_194532;-0.041;5.966;9.610;0.049;0.003;-0.159;
20200827_194533;1.085;6.828;6.828;0.117;0.027;0.203;
20200827_194533;-0.862;3.598;7.025;0.010;0.066;-0.272;
20200827_194533;0.017;7.338;8.174;0.059;-0.128;-0.250;
20200827_194533;1.523;3.445;9.919;0.002;-0.173;-0.000;
20200827_194533;-1.506;2.784;12.761;-0.033;-0.015;0.221;
20200827_194533;-1.891;5.816;4.089;-0.001;0.032;0.523;
20200827_194533;0.409;3.309;12.426;0.033;0.079;0.029;
20200827_194533;0.723;7.027;3.349;0.127;-0.073;-0.369;
20200827_194533;-0.026;4.906;6.974;0.033;0.014;0.036;
20200827_194533;1.262;4.903;9.153;-0.015;0.017;0.069;
20200827_194534;0.929;4.420;0.045;0.153;0.074;-0.132;
20200827_194534;0.931;6.677;10.839;0.130;0.024;-0.138;
20200827_194534;1.104;5.569;10.602;-0.095;-0.048;-0.113;
20200827_194534;-6.076;0.895;5.868;-0.044;-0.141;-0.051;
20200827_194534;-0.508;3.242;8.643;-0.088;-0.047;0.088;
20200827_194534;-0.069;4.448;9.910;-0.041;-0.092;-0.024;
20200827_194534;1.106;4.882;6.325;0.043;-0.089;-0.145;
20200827_194534;-0.539;5.763;11.042;-0.095;-0.145;-0.047;
20200827_194534;-0.713;5.195;8.514;0.113;-0.074;0.206;
20200827_194535;0.675;6.290;7.800;0.006;-0.056;0.188;
20200827_194535;-0.134;3.373;6.979;-0.116;0.075;0.148;
20200827_194535;-0.108;5.148;13.154;-0.087;0.006;-0.002;
20200827_194535;1.784;3.469;11.758;-0.008;0.021;0.019;
20200827_194535;-0.364;2.468;19.944;0.172;0.095;0.223;
20200827_194535;-1.987;2.023;9.946;-0.113;0.102;0.113;
20200827_194535;0.390;5.746;8.387;-0.167;0.140;0.238;
20200827_194535;-0.182;6.931;12.577;-0.016;0.143;-0.051;
20200827_194535;3.285;4.930;12.457;-0.092;-0.001;-0.553;
20200827_194536;0.656;1.264;12.938;-0.152;0.011;-0.463;
20200827_194536;-1.537;6.294;11.976;-0.126;-0.033;-0.375;
20200827_194536;-2.188;4.453;18.323;-0.121;0.057;0.156;
20200827_194536;1.211;1.013;10.590;-0.124;-0.038;-0.256;
20200827_194536;-0.402;5.552;10.410;0.087;-0.020;-0.671;
20200827_194536;-0.273;-0.151;9.024;-0.186;-0.122;-0.496;
20200827_194536;0.773;2.674;11.305;0.343;-0.156;-0.142;
20200827_194536;1.738;6.400;14.013;0.017;-0.087;-0.290;
20200827_194536;-1.477;8.147;5.061;0.159;-0.081;-0.279;
20200827_194536;-1.903;2.607;10.532;0.017;-0.150;-0.095;
20200827_194537;1.657;4.144;5.859;0.085;-0.281;-0.516;
20200827_194537;-0.745;4.379;6.783;0.158;-0.221;-0.297;
20200827_194537;-2.512;3.953;-4.793;-0.184;-0.238;-0.005;
20200827_194537;-0.215;3.706;12.012;0.376;-0.170;0.041;
20200827_194537;2.191;-2.907;9.108;0.048;-0.122;-0.017;
20200827_194537;-1.259;3.244;1.769;0.216;-0.148;0.122;
20200827_194537;-0.979;0.548;8.763;-0.086;0.179;0.374;
20200827_194537;1.120;4.472;3.211;0.084;-0.012;-0.045;
20200827_194537;1.664;5.274;10.333;0.073;-0.082;-0.448;
20200827_194538;-0.194;6.347;5.988;-0.017;-0.115;-0.356;
20200827_194538;-1.085;4.697;0.802;0.244;-0.164;-0.095;
20200827_194538;-1.267;5.887;6.383;0.044;-0.133;-0.000;
20200827_194538;0.189;5.643;5.248;0.082;-0.204;0.169;
20200827_194538;-0.354;4.096;7.343;-0.044;-0.059;0.351;
20200827_194538;1.202;5.636;4.216;0.059;-0.058;0.311;
20200827_194538;0.735;3.493;8.691;-0.072;0.052;0.202;
20200827_194538;-0.041;5.308;10.812;-0.055;0.058;0.146;
20200827_194538;1.034;7.657;12.440;-0.152;0.071;0.118;
20200827_194538;0.127;6.251;-3.031;-0.194;0.059;-0.051;
20200827_194539;0.441;5.842;-2.143;-0.013;0.076;-0.017;
20200827_194539;-0.503;1.990;5.667;-0.288;0.114;0.145;
20200827_194539;-1.006;2.277;12.404;-0.275;0.099;0.259;
20200827_194539;2.945;9.215;5.588;0.098;0.174;0.035;
20200827_194539;1.767;-0.572;10.757;-0.047;0.087;-0.137;
20200827_194539;0.886;6.773;6.244;-0.052;0.030;-0.209;
20200827_194539;0.924;5.253;11.229;-0.064;-0.017;-0.454;
20200827_194539;1.645;1.539;7.815;-0.046;-0.049;-0.352;
20200827_194539;-0.426;1.310;17.605;-0.332;-0.074;-0.088;
20200827_194540;-0.749;5.140;17.334;-0.114;0.014;-0.156;
20200827_194540;0.256;6.036;16.956;0.006;-0.185;-0.230;
20200827_194540;-0.318;5.021;12.546;0.218;-0.102;0.032;
20200827_194540;-0.287;3.680;5.030;0.225;-0.075;0.376;
20200827_194540;-0.575;3.883;9.778;0.084;0.032;0.457;
20200827_194540;1.630;3.457;11.143;0.014;-0.022;0.102;
20200827_194540;-0.096;4.214;6.962;-0.033;0.037;0.190;
20200827_194540;0.338;3.862;17.368;-0.296;0.090;0.239;
20200827_194540;3.443;4.956;7.396;-0.167;0.057;-0.501;
20200827_194540;1.403;4.573;3.651;-0.030;-0.039;-0.320;
20200827_194541;0.754;5.674;3.733;0.346;-0.063;-0.258;
20200827_194541;-1.664;3.361;7.863;0.054;-0.053;0.176;
20200827_194541;0.464;7.104;-0.091;-0.004;-0.046;0.280;
20200827_194541;-0.163;6.177;17.643;-0.059;-0.031;0.817;
20200827_194541;0.268;2.253;6.062;0.107;0.091;0.292;
20200827_194541;0.761;2.856;8.916;-0.197;-0.011;0.123;
20200827_194541;2.653;8.918;7.238;0.093;-0.092;-0.150;
20200827_194541;0.725;-1.765;16.661;0.043;0.003;0.076;
20200827_194541;3.254;5.600;-2.346;0.083;-0.020;0.538;
20200827_194542;3.407;4.061;6.292;-0.110;0.084;0.032;
20200827_194542;-0.543;2.741;8.997;-0.181;0.066;0.047;
20200827_194542;0.824;3.527;12.452;0.021;0.029;0.313;
20200827_194542;0.086;4.044;8.938;0.017;0.138;0.259;
20200827_194542;0.091;6.507;6.752;0.205;0.091;0.307;
20200827_194542;-0.271;5.904;11.447;0.018;0.279;0.618;
20200827_194542;1.264;1.865;7.530;0.195;0.225;0.203;
20200827_194542;1.506;1.851;5.411;-0.054;0.129;-0.196;
20200827_194542;-1.013;5.758;8.270;-0.110;0.172;-0.017;
20200827_194542;-1.322;7.254;10.300;0.026;0.220;0.137;
20200827_194543;2.227;5.784;-10.594;0.514;0.097;-0.092;
20200827_194543;1.671;2.828;13.982;-0.151;0.065;-0.068;
20200827_194543;-0.395;4.520;9.864;-0.243;0.143;-0.336;
20200827_194543;-0.594;2.902;10.056;0.010;0.053;-0.079;
20200827_194543;-1.439;3.376;4.250;-0.105;0.097;0.119;
20200827_194543;0.532;5.792;6.172;-0.016;0.083;0.113;
20200827_194543;0.828;7.242;5.318;0.099;0.076;-0.177;
20200827_194543;1.762;6.431;13.431;0.114;-0.033;-0.394;
20200827_194543;0.311;6.053;11.768;0.153;-0.098;-0.433;
20200827_194544;-1.700;4.882;8.183;0.360;-0.197;-0.109;
20200827_194544;-0.982;5.013;8.279;-0.022;-0.199;0.074;
20200827_194544;0.273;6.258;12.948;0.002;-0.187;-0.214;
20200827_194544;-0.357;3.565;4.951;-0.115;-0.145;-0.045;
20200827_194544;-0.915;5.286;11.159;-0.031;-0.094;0.232;
20200827_194544;-0.986;2.878;5.595;-0.035;-0.008;0.305;
20200827_194544;-1.571;5.119;10.096;-0.097;0.174;0.528;
20200827_194544;1.041;5.083;4.053;0.032;0.128;0.125;
20200827_194544;2.334;5.332;7.772;-0.053;0.070;-0.245;
20200827_194545;1.125;2.210;6.151;-0.106;-0.013;-0.351;
20200827_194545;0.096;5.887;5.940;0.050;-0.074;-0.316;
20200827_194545;-1.255;3.481;8.519;0.079;-0.133;-0.143;
20200827_194545;0.654;2.509;7.999;0.122;-0.047;0.252;
20200827_194545;0.742;6.321;7.489;0.052;-0.014;0.167;
20200827_194545;1.362;4.360;7.841;0.009;-0.011;-0.050;
20200827_194545;0.163;5.195;4.875;0.098;0.018;-0.011;
20200827_194545;-0.060;4.748;8.480;0.156;0.034;0.056;
20200827_194545;0.299;5.418;3.713;0.155;0.020;0.027;
20200827_194545;1.128;7.690;4.719;0.174;0.026;0.095;
20200827_194546;-0.041;4.980;8.571;-0.051;0.051;0.191;
20200827_194546;1.470;4.305;7.575;-0.038;-0.012;-0.044;
20200827_194546;-0.180;4.932;14.636;0.218;0.011;-0.141;
20200827_194546;1.650;5.069;7.307;0.127;-0.072;-0.042;
20200827_194546;-0.479;6.931;8.351;0.019;-0.026;-0.011;
20200827_194546;0.153;3.752;-2.004;0.058;-0.038;-0.052;
20200827_194546;-0.146;3.534;9.855;0.042;0.011;0.039;
20200827_194546;-0.402;1.312;5.990;-0.049;0.041;0.177;
20200827_194546;-1.087;5.009;5.028;0.044;0.027;0.169;
20200827_194547;0.622;5.037;4.738;-0.086;0.014;0.214;
20200827_194547;-0.153;5.100;10.288;0.039;0.081;0.248;
20200827_194547;0.974;3.048;8.770;-0.053;0.083;-0.061;
20200827_194547;0.879;4.159;3.455;0.159;0.064;-0.118;
20200827_194547;1.580;2.713;8.188;-0.118;0.020;-0.246;
20200827_194547;1.666;4.061;4.872;-0.034;0.005;-0.224;
20200827_194547;0.991;2.988;9.134;-0.111;-0.025;-0.218;
20200827_194547;-0.498;3.278;10.489;-0.065;-0.013;-0.092;
20200827_194547;-0.927;5.282;8.298;0.097;-0.000;0.100;
20200827_194548;1.894;6.646;16.017;0.038;-0.001;0.384;
20200827_194548;-1.140;5.138;7.427;-0.004;0.170;0.225;
20200827_194548;-0.378;2.435;6.795;0.018;0.156;0.188;
20200827_194548;1.923;2.844;11.222;-0.095;0.054;-0.313;
20200827_194548;0.247;3.570;8.456;-0.053;-0.019;-0.442;
20200827_194548;0.383;3.694;7.661;0.144;0.002;-0.202;
20200827_194548;-0.287;5.660;8.820;-0.056;-0.101;-0.195;
20200827_194548;0.697;5.528;3.168;0.023;-0.111;-0.153;
20200827_194548;-0.857;7.101;5.952;-0.086;-0.061;-0.101;
20200827_194548;0.024;5.538;4.925;0.124;-0.134;-0.281;
20200827_194549;-0.486;5.495;4.233;0.085;-0.101;-0.064;
20200827_194549;-1.678;5.705;7.056;0.097;-0.033;0.455;
20200827_194549;0.840;3.057;10.654;-0.098;0.071;0.565;
20200827_194549;1.245;2.456;11.665;-0.150;0.063;0.002;
20200827_194549;1.561;8.933;10.511;-0.129;-0.066;-0.409;
20200827_194549;-0.419;5.993;3.668;-0.015;-0.078;-0.268;
20200827_194549;-0.127;9.213;8.574;-0.133;-0.093;-0.034;
20200827_194549;-0.433;5.861;10.333;-0.220;-0.052;0.217;
20200827_194549;1.748;3.915;1.389;-0.062;-0.055;0.265;
20200827_194550;0.491;1.906;4.487;0.064;0.039;0.066;
20200827_194550;-0.235;3.141;15.052;-0.128;-0.018;-0.078;
20200827_194550;0.919;4.911;8.643;0.075;0.021;0.069;
20200827_194550;0.247;3.256;8.147;-0.062;0.092;0.162;
20200827_194550;1.389;3.654;7.302;0.065;0.054;0.016;
20200827_194550;-0.886;4.980;12.562;-0.103;0.092;0.027;
20200827_194550;0.883;5.789;1.068;0.230;-0.008;-0.077;
20200827_194550;0.845;2.016;12.036;-0.151;0.052;0.349;
20200827_194550;0.970;5.272;5.818;0.073;0.105;-0.115;
20200827_194550;-0.812;6.321;10.671;-0.079;0.057;0.129;
20200827_194551;2.320;4.915;3.622;0.172;-0.000;-0.125;
20200827_194551;1.104;3.038;8.068;0.124;0.107;-0.322;
20200827_194551;0.263;2.109;8.226;-0.081;-0.024;-0.344;
20200827_194551;-1.135;5.885;5.011;0.109;-0.018;-0.141;
20200827_194551;1.966;4.841;12.481;-0.110;-0.013;0.082;
20200827_194551;0.122;5.787;7.496;0.068;-0.034;0.086;
20200827_194551;0.481;4.132;11.672;-0.125;-0.032;0.103;
20200827_194551;-0.881;3.919;7.391;-0.067;-0.040;-0.020;
20200827_194551;-0.335;3.833;6.290;0.100;-0.005;0.204;
20200827_194551;1.013;4.599;9.574;0.006;-0.009;0.013;
20200827_194552;0.158;4.913;4.594;0.157;-0.068;-0.167;
20200827_194552;-2.093;6.812;15.627;-0.061;0.027;-0.215;
20200827_194552;0.910;7.875;10.218;-0.119;-0.101;-0.173;
20200827_194552;1.882;7.781;12.074;-0.200;-0.149;-0.188;
20200827_194552;-1.446;1.551;10.202;-0.127;0.011;0.065;
20200827_194552;-0.730;4.982;-3.299;0.569;-0.038;0.190;
20200827_194552;1.530;9.823;11.425;-0.019;0.125;0.761;
20200827_194552;3.891;7.142;10.659;-0.062;0.040;-0.159;
20200827_194552;-1.707;7.788;-0.218;0.127;0.035;-0.111;
20200827_194553;1.259;3.924;2.619;-0.087;0.055;0.118;
20200827_194553;2.421;6.345;2.705;0.000;-0.003;-0.202;
20200827_194553;0.685;4.190;-1.214;0.030;-0.038;-0.587;
20200827_194553;0.113;7.140;12.881;0.028;-0.033;-0.209;
20200827_194553;2.162;6.515;7.839;-0.062;-0.112;0.019;
20200827_194553;-1.080;9.428;5.667;0.253;-0.023;-0.204;
20200827_194553;-0.512;1.104;5.102;0.017;-0.028;0.113;
20200827_194553;0.395;2.512;4.939;-0.028;0.030;0.181;
20200827_194553;-0.002;6.005;8.056;-0.083;0.121;0.091;
20200827_194553;0.874;5.325;7.072;-0.033;0.027;-0.093;
20200827_194554;-1.872;3.043;7.573;0.099;0.030;0.086;
20200827_194554;0.409;5.892;13.032;-0.219;-0.000;0.003;
20200827_194554;0.532;4.501;4.585;-0.040;-0.010;-0.266;
20200827_194554;0.211;1.875;10.374;-0.080;-0.080;-0.131;
20200827_194554;-1.039;5.804;11.356;-0.081;-0.040;-0.011;
20200827_194554;1.676;4.729;8.260;-0.146;-0.095;-0.329;
20200827_194554;-0.237;4.733;3.852;0.118;-0.035;-0.091;
20200827_194554;-0.563;4.889;9.979;0.034;-0.055;-0.057;
20200827_194554;1.487;6.725;8.600;-0.070;-0.074;0.036;
20200827_194555;-1.523;7.800;10.688;0.144;-0.058;0.120;
20200827_194555;1.733;5.322;3.888;0.016;-0.074;0.281;
20200827_194555;-0.570;6.555;8.598;-0.012;0.020;0.147;
20200827_194555;-0.038;2.054;8.650;-0.130;-0.059;0.108;
20200827_194555;0.297;4.583;8.940;0.009;0.141;0.085;
20200827_194555;1.099;5.677;13.144;-0.008;0.010;-0.234;
20200827_194555;-0.965;4.985;6.021;0.057;-0.011;-0.276;
20200827_194555;1.317;2.619;7.396;0.010;-0.058;-0.145;
20200827_194555;-0.469;5.150;13.056;0.002;-0.033;-0.161;
20200827_194556;0.986;4.578;9.998;0.133;-0.097;0.038;
20200827_194556;-0.110;5.361;6.867;0.071;0.069;0.204;
20200827_194556;-0.002;5.236;8.454;-0.020;0.027;0.116;
20200827_194556;0.259;7.269;3.136;-0.022;0.132;0.308;
20200827_194556;-0.144;3.900;3.869;0.094;0.136;0.216;
20200827_194556;1.262;1.784;6.560;0.065;0.022;-0.330;
20200827_194556;-1.571;5.899;9.780;0.019;0.008;-0.015;
20200827_194556;0.170;5.377;15.048;-0.164;0.033;0.041;
20200827_194556;1.480;4.324;5.631;-0.045;0.025;-0.014;
20200827_194556;0.907;4.264;6.900;0.006;0.047;-0.169;
20200827_194557;0.366;3.448;9.476;-0.044;0.023;-0.223;
20200827_194557;0.436;3.936;7.278;0.017;-0.068;-0.335;
20200827_194557;-0.493;4.511;4.345;0.045;0.019;0.060;
20200827_194557;0.010;2.602;7.980;-0.045;0.030;-0.023;
20200827_194557;-1.176;6.898;11.394;-0.060;0.027;-0.111;
20200827_194557;0.122;2.555;12.689;-0.043;-0.084;-0.198;
20200827_194557;3.091;3.464;11.650;-0.030;-0.060;-0.072;
20200827_194557;1.302;1.267;8.703;0.059;-0.111;-0.213;
20200827_194557;-0.385;4.551;8.598;0.042;-0.152;-0.077;
20200827_194558;-1.733;2.710;8.600;-0.004;-0.084;0.057;
20200827_194558;1.290;5.895;9.483;-0.046;-0.106;0.206;
20200827_194558;0.546;3.072;8.262;-0.061;-0.025;-0.039;
20200827_194558;0.663;4.764;9.316;0.071;0.003;0.128;
20200827_194558;0.989;3.565;8.025;0.005;0.046;-0.033;
20200827_194558;0.965;7.089;8.545;0.102;-0.076;-0.232;
20200827_194558;-0.340;3.962;8.459;-0.133;-0.025;0.081;
20200827_194558;-1.008;6.766;9.443;-0.040;-0.082;0.095;
20200827_194558;0.534;3.850;10.178;-0.004;-0.041;0.214;
20200827_194559;-0.146;7.326;7.949;0.050;0.015;0.301;
20200827_194559;2.327;2.449;6.931;-0.047;-0.010;0.121;
20200827_194559;0.409;5.509;14.564;-0.135;0.082;0.064;
20200827_194559;1.401;6.440;6.304;0.175;0.054;-0.084;
20200827_194559;1.848;6.328;9.649;0.012;0.046;-0.157;
20200827_194559;0.484;5.030;9.658;-0.037;0.032;0.062;
20200827_194559;-0.096;4.520;5.313;0.009;0.152;-0.029;
20200827_194559;1.070;6.177;10.496;0.097;0.090;-0.054;
20200827_194559;-0.419;6.333;8.210;0.001;0.073;-0.158;
20200827_194600;0.014;5.578;9.098;0.078;0.003;-0.197;
20200827_194600;0.136;3.215;10.506;-0.124;-0.063;-0.203;
20200827_194600;0.436;3.838;10.712;-0.051;-0.116;-0.340;
20200827_194600;0.129;5.495;14.310;0.106;-0.090;0.046;
20200827_194600;0.804;6.031;7.781;0.112;-0.080;0.049;
20200827_194600;2.454;3.577;7.602;-0.012;-0.132;-0.111;
20200827_194600;-2.866;3.163;8.092;-0.021;0.025;0.078;
20200827_194600;0.007;3.189;6.553;-0.028;0.001;0.187;
20200827_194600;0.409;5.696;7.008;0.047;-0.016;0.047;
20200827_194600;0.402;3.261;7.199;-0.134;-0.010;0.060;
20200827_194601;-0.948;5.349;8.090;-0.116;0.196;0.383;
20200827_194601;1.508;5.655;5.468;-0.033;0.035;-0.162;
20200827_194601;1.800;6.053;6.577;0.225;-0.099;-0.500;
20200827_194601;-0.776;5.787;8.155;0.061;-0.157;-0.465;
20200827_194601;-0.469;4.769;10.178;-0.089;-0.216;-0.091;
20200827_194601;-0.309;4.863;8.423;0.098;-0.065;0.349;
20200827_194601;-1.358;4.216;9.060;0.023;-0.061;0.275;
20200827_194601;0.644;1.630;11.255;-0.146;-0.046;0.191;
20200827_194601;0.807;3.335;5.983;-0.068;-0.009;0.260;
20200827_194602;-0.821;7.479;16.113;0.027;0.188;0.401;
20200827_194602;1.872;2.722;0.536;0.168;0.178;0.101;
20200827_194602;-0.582;6.117;13.716;0.018;0.096;-0.269;
20200827_194602;2.825;-0.974;8.155;0.188;0.092;-0.205;
20200827_194602;-0.445;7.163;9.196;-0.040;0.102;0.065;
20200827_194602;2.787;1.250;5.674;-0.002;0.026;-0.065;
20200827_194602;-1.183;8.760;10.295;0.071;0.103;-0.148;
20200827_194602;1.575;2.962;11.586;-0.066;0.040;-0.371;
20200827_194602;0.670;6.771;12.139;-0.142;-0.122;-0.554;
20200827_194602;-2.789;3.199;13.278;0.088;0.137;-0.428;
20200827_194603;-0.895;1.434;5.947;0.041;-0.064;-0.023;
20200827_194603;-0.697;2.617;9.826;-0.021;0.033;0.216;
20200827_194603;-1.492;4.317;8.911;-0.078;-0.011;0.084;
20200827_194603;1.120;3.821;9.012;0.022;-0.003;-0.128;
20200827_194603;-0.709;2.483;2.947;-0.032;-0.075;-0.245;
20200827_194603;-0.230;4.805;7.317;-0.066;-0.123;-0.100;
20200827_194603;-0.153;2.035;1.865;0.196;-0.173;0.176;
20200827_194603;0.113;4.537;12.474;0.059;0.037;0.538;
20200827_194603;4.520;-2.162;12.210;-0.439;0.072;0.002;
20200827_194604;2.933;4.295;-2.871;-0.194;0.009;-0.449;
20200827_194604;1.681;5.681;6.677;-0.015;-0.061;-0.330;
20200827_194604;-0.110;6.050;13.791;0.144;-0.055;-0.097;
20200827_194604;-0.893;7.082;12.067;0.018;-0.147;-0.231;
20200827_194604;-1.374;3.498;4.767;0.034;0.024;0.140;
20200827_194604;-1.073;5.255;7.640;-0.126;-0.044;0.374;
20200827_194604;-0.294;-2.602;6.309;-0.379;0.025;0.280;
20200827_194604;0.991;7.740;2.138;-0.132;0.078;0.260;
20200827_194604;0.575;4.946;4.460;0.004;0.021;-0.059;
20200827_194604;0.800;4.312;3.112;0.034;0.060;0.034;
20200827_194605;1.527;5.691;6.450;-0.194;-0.015;-0.117;
20200827_194605;0.189;4.609;9.826;-0.030;0.038;-0.117;
20200827_194605;-0.596;4.764;16.544;0.046;0.049;0.046;
20200827_194605;1.231;5.804;17.217;0.078;0.049;0.054;
20200827_194605;1.247;4.973;10.003;-0.063;-0.000;-0.182;
20200827_194605;-0.824;2.468;8.976;0.061;0.081;-0.043;
20200827_194605;-0.543;-0.029;7.082;0.132;-0.065;-0.261;
20200827_194605;0.041;2.394;5.593;0.036;-0.039;0.150;
20200827_194605;1.211;3.807;7.824;0.010;-0.041;-0.041;
20200827_194606;-0.532;5.116;8.672;-0.119;-0.064;-0.068;
20200827_194606;1.082;5.727;8.456;0.009;-0.038;0.035;
20200827_194606;1.025;3.235;4.805;0.030;-0.028;-0.018;
20200827_194606;0.831;4.846;7.767;-0.021;-0.063;-0.115;
20200827_194606;-1.398;3.534;6.701;0.077;-0.030;0.065;
20200827_194606;0.522;4.295;10.573;-0.067;0.015;0.135;
20200827_194606;0.622;4.894;2.437;0.112;0.049;0.050;
20200827_194606;0.716;5.375;11.600;0.032;0.040;0.019;
20200827_194606;0.678;5.385;14.590;-0.108;0.047;-0.001;
20200827_194606;1.245;5.160;10.669;-0.021;0.049;-0.043;
20200827_194607;0.134;3.845;11.016;0.149;-0.007;-0.193;
20200827_194607;0.330;4.252;5.916;0.057;-0.063;-0.165;
20200827_194607;0.283;5.835;6.625;0.054;-0.038;-0.094;
20200827_194607;1.132;3.620;12.172;-0.021;-0.020;0.055;
20200827_194607;0.656;7.087;4.063;0.168;0.041;-0.085;
20200827_194607;0.158;7.372;1.602;0.306;-0.064;-0.267;
20200827_194607;1.650;10.491;16.824;-0.132;-0.138;-0.090;
20200827_194607;-0.462;4.764;19.688;-0.213;-0.065;0.085;
20200827_194607;-2.193;2.004;8.633;-0.198;0.079;0.161;
20200827_194608;0.249;2.765;5.648;0.083;0.042;0.178;
20200827_194608;0.759;1.379;9.692;-0.089;0.010;-0.035;
20200827_194608;0.347;10.089;5.066;0.172;-0.043;0.029;
20200827_194608;0.666;6.280;12.503;-0.012;0.056;0.135;
20200827_194608;1.171;8.339;13.307;-0.116;0.056;0.147;
20200827_194608;1.058;5.162;6.314;0.245;-0.014;-0.060;
20200827_194608;-0.218;2.435;6.895;0.062;0.017;0.002;
20200827_194608;-0.419;5.073;18.074;-0.176;0.131;0.197;
20200827_194608;-0.029;2.373;11.904;-0.108;0.055;-0.183;
20200827_194609;0.666;5.768;6.306;0.031;-0.032;-0.172;
20200827_194609;-0.606;3.697;5.449;-0.071;0.082;0.252;
20200827_194609;-0.711;5.655;4.654;0.002;0.107;0.156;
20200827_194609;1.535;5.361;11.372;0.075;0.160;-0.025;
20200827_194609;1.585;3.050;7.235;-0.003;0.141;-0.361;
20200827_194609;2.500;5.545;13.949;-0.051;-0.033;-0.727;
20200827_194609;0.476;6.251;10.003;0.038;-0.065;-0.781;
20200827_194609;-0.385;3.376;7.506;0.135;-0.194;-0.565;
20200827_194609;-4.815;9.244;1.750;0.338;-0.097;-0.504;
20200827_194609;-0.651;4.152;6.967;0.102;-0.386;-0.325;
20200827_194610;-1.377;5.909;10.695;0.042;-0.412;0.113;
20200827_194610;-2.988;1.666;7.257;0.060;-0.190;0.908;
20200827_194610;-0.093;5.693;15.471;-0.049;-0.058;1.067;
20200827_194610;-0.005;1.822;-0.431;0.048;0.280;1.148;
20200827_194610;2.325;6.823;7.877;0.063;0.380;0.656;
20200827_194610;2.593;2.107;9.737;0.026;0.319;-0.342;
20200827_194610;0.972;3.551;7.776;0.027;0.276;-0.656;
20200827_194610;1.575;4.424;8.191;-0.015;0.038;-0.881;
20200827_194610;1.271;2.978;12.886;-0.010;-0.131;-0.923;
20200827_194611;-0.673;2.658;8.229;0.215;-0.220;-0.358;
20200827_194611;-1.872;4.187;12.953;-0.015;-0.118;0.385;
20200827_194611;-1.551;4.846;4.405;0.150;-0.057;0.343;
20200827_194611;0.606;1.384;12.854;0.054;-0.069;0.050;
20200827_194611;-0.397;2.909;20.403;0.094;0.036;0.158;
20200827_194611;-1.338;4.029;6.057;-0.330;-0.114;-0.191;
20200827_194611;0.247;8.377;10.798;-0.078;-0.132;-0.293;
20200827_194611;0.144;11.981;7.982;0.215;-0.141;-0.081;
20200827_194611;0.134;2.555;15.641;-0.246;-0.139;0.225;
20200827_194611;0.266;3.424;3.831;0.049;0.011;0.434;
20200827_194612;0.797;4.492;-3.376;0.276;0.168;0.555;
20200827_194612;-0.646;6.139;2.753;0.080;0.144;0.414;
20200827_194612;1.267;5.409;10.465;0.086;0.190;0.325;
20200827_194612;0.232;5.748;7.748;-0.025;0.258;0.103;
20200827_194612;3.136;4.125;11.473;-0.034;0.095;-0.414;
20200827_194612;0.227;4.063;11.114;0.000;0.035;-0.642;
20200827_194612;-0.594;5.521;8.605;0.014;-0.039;-0.524;
20200827_194612;-0.405;5.895;8.102;0.016;-0.108;-0.074;
20200827_194612;0.129;3.658;13.020;-0.067;-0.076;0.165;
20200827_194613;-1.736;6.237;10.628;-0.054;-0.006;0.312;
20200827_194613;1.932;4.542;15.287;0.039;0.023;0.206;
20200827_194613;3.084;2.610;10.793;0.027;-0.045;-0.129;
20200827_194613;-0.433;5.303;11.186;0.062;-0.015;-0.094;
20200827_194613;0.156;5.971;6.673;-0.025;-0.006;-0.108;
20200827_194613;0.136;8.219;17.159;-0.045;0.038;-0.073;
20200827_194613;-0.922;4.982;10.867;-0.142;-0.043;0.016;
20200827_194613;1.355;4.769;4.934;0.060;-0.059;-0.209;
20200827_194613;1.381;6.802;9.416;0.032;-0.106;-0.267;
20200827_194614;-1.008;4.369;15.495;0.106;-0.148;-0.153;
20200827_194614;0.225;-0.632;14.267;-0.198;-0.131;-0.082;
20200827_194614;-0.977;3.907;9.953;0.038;-0.147;-0.054;
20200827_194614;-1.568;8.298;6.215;0.020;-0.034;0.285;
20200827_194614;-0.407;4.484;3.395;0.059;0.053;0.553;
20200827_194614;0.496;2.873;8.346;-0.067;0.105;0.350;
20200827_194614;1.664;5.904;12.742;0.001;-0.019;-0.137;
20200827_194614;0.441;2.672;10.455;-0.074;0.002;-0.237;
20200827_194614;0.026;6.036;8.188;-0.064;0.027;0.001;
20200827_194614;0.079;4.630;8.938;-0.022;0.050;0.046;
20200827_194615;1.173;5.938;7.807;0.074;0.029;0.025;
20200827_194615;0.239;5.813;6.428;0.043;-0.016;-0.264;
20200827_194615;-1.166;4.405;5.708;0.176;-0.031;-0.203;
20200827_194615;0.017;4.693;7.372;0.076;-0.049;0.154;
20200827_194615;-0.093;2.933;11.140;-0.016;0.025;0.194;
20200827_194615;1.051;6.136;6.275;0.057;-0.019;-0.061;
20200827_194615;0.371;1.358;10.175;-0.017;-0.081;-0.278;
20200827_194615;0.105;4.307;6.979;0.033;-0.110;-0.255;
20200827_194615;-0.778;3.395;9.661;-0.044;-0.060;0.165;
20200827_194615;-1.290;3.089;8.401;0.032;-0.019;0.319;
20200827_194616;-0.292;4.113;9.644;0.079;0.139;0.764;
20200827_194616;-0.218;5.277;8.370;0.018;0.038;0.211;
20200827_194616;1.085;4.092;8.327;0.036;0.079;0.365;
20200827_194616;0.005;3.816;10.211;0.042;0.376;1.062;
20200827_194616;-0.441;4.994;8.279;0.126;0.397;0.904;
20200827_194616;2.993;6.093;8.897;-0.046;0.225;0.316;
20200827_194616;1.738;4.113;8.181;-0.005;-0.254;-1.503;
20200827_194616;-0.146;1.918;8.789;0.021;-0.257;-0.940;
20200827_194616;-1.408;3.668;8.519;0.016;0.008;0.303;
20200827_194617;0.776;3.922;9.713;0.005;0.020;0.514;
20200827_194617;1.391;2.691;10.211;0.110;0.038;0.259;
20200827_194617;0.591;3.728;8.578;0.085;0.180;0.533;
20200827_194617;0.522;4.288;8.954;0.051;0.263;0.726;
20200827_194617;0.417;4.073;8.851;0.098;0.308;0.815;
20200827_194617;0.311;5.236;7.695;0.179;0.267;0.523;
20200827_194617;-0.441;5.040;8.823;0.103;0.262;0.448;
20200827_194617;0.673;3.850;9.050;0.115;0.200;0.332;
20200827_194617;2.770;3.328;8.847;0.104;0.282;0.410;
20200827_194617;2.473;4.156;7.252;0.192;0.376;0.390;
20200827_194618;-0.599;3.050;10.393;0.130;0.146;-0.240;
20200827_194618;0.163;4.094;7.587;0.077;0.002;-0.351;
20200827_194618;0.242;4.994;7.877;0.033;0.013;-0.159;
20200827_194618;0.488;4.894;8.028;0.027;-0.007;-0.124;
20200827_194618;-0.196;5.528;7.626;0.027;-0.020;-0.166;
20200827_194618;0.625;4.944;7.633;0.019;-0.027;-0.088;
20200827_194618;0.615;5.614;7.614;0.018;-0.005;-0.029;
20200827_194618;0.412;5.849;7.377;-0.006;0.006;0.029;
20200827_194618;-0.062;6.424;7.764;0.008;0.041;0.118;
20200827_194619;0.402;5.906;7.563;-0.034;0.079;0.346;
20200827_194619;2.411;5.590;7.690;-0.053;-0.074;-0.243;
20200827_194619;1.271;5.895;6.680;-0.062;-0.174;-0.726;
20200827_194619;0.165;6.426;7.906;-0.061;-0.091;-0.403;
20200827_194619;1.527;2.784;8.248;-0.001;-0.152;-0.696;
20200827_194619;0.584;2.995;9.263;-0.043;-0.244;-1.038;
20200827_194619;-1.288;4.791;8.349;-0.047;-0.015;-0.626;
20200827_194619;-2.947;5.820;7.309;-0.008;-0.082;-0.248;
20200827_194619;-1.441;5.593;8.045;0.006;-0.186;0.006;
20200827_194619;0.852;3.718;9.100;-0.011;-0.155;-0.028;
20200827_194620;-0.769;5.253;7.767;-0.041;-0.153;-0.224;
20200827_194620;-1.240;5.037;8.435;-0.022;-0.218;-0.226;
20200827_194620;0.795;4.721;8.028;-0.032;-0.099;-0.128;
20200827_194620;-0.754;3.996;8.394;-0.050;-0.034;-0.106;
20200827_194620;0.498;3.610;9.373;-0.053;-0.087;-0.299;
20200827_194620;-0.733;4.240;8.543;-0.069;0.045;-0.240;
20200827_194620;-2.320;3.994;8.653;-0.033;0.047;-0.174;
20200827_194620;-2.006;4.056;8.509;-0.014;-0.115;-0.266;
20200827_194620;-1.286;4.973;8.052;0.005;-0.161;-0.182;
20200827_194621;-1.872;4.233;7.439;-0.011;-0.191;-0.010;
20200827_194621;-0.467;3.814;7.891;0.034;-0.160;0.173;
20200827_194621;0.687;4.642;8.571;0.015;-0.160;-0.041;
20200827_194621;-0.266;4.001;9.093;0.003;-0.027;0.216;
20200827_194621;-0.364;4.650;8.624;-0.036;0.314;1.098;
20200827_194621;-1.152;5.222;8.150;0.001;0.418;1.193;
20200827_194621;0.718;5.983;7.683;0.026;0.213;0.477;
20200827_194621;-0.208;5.456;8.425;-0.038;-0.087;-0.159;
20200827_194621;0.773;4.089;8.966;-0.022;0.035;0.046;
20200827_194622;-0.910;3.120;9.266;0.035;0.179;0.209;
20200827_194622;-0.601;4.719;9.342;0.009;0.150;0.303;
20200827_194622;0.915;3.419;8.619;0.053;0.274;0.561;
20200827_194622;0.124;2.816;9.115;0.068;0.321;0.332;
20200827_194622;-0.967;3.196;9.507;0.050;0.218;0.071;
20200827_194622;-0.661;3.136;9.426;0.025;0.082;-0.112;
20200827_194622;0.077;5.325;7.633;0.033;-0.001;-0.238;
20200827_194622;-0.788;4.709;8.210;0.008;-0.022;-0.254;
20200827_194622;-0.852;4.697;8.408;0.001;-0.005;-0.081;
20200827_194622;-0.433;4.386;8.583;0.005;0.046;0.104;
20200827_194623;-0.474;4.185;8.557;0.004;0.026;0.032;
20200827_194623;-0.558;4.726;8.351;0.000;-0.015;-0.080;
20200827_194623;-0.785;4.547;8.423;-0.001;-0.006;-0.041;
20200827_194623;-0.773;4.587;8.447;0.000;0.010;0.089;
20200827_194623;-0.364;4.597;8.423;-0.001;0.006;0.102;
20200827_194623;-0.452;4.592;8.437;-0.005;-0.020;0.005;
20200827_194623;-0.536;4.448;8.471;-0.005;-0.033;-0.036;
20200827_194623;-0.448;4.307;8.547;-0.007;-0.043;-0.076;
20200827_194623;0.050;4.796;8.358;0.003;0.050;0.128;
20200827_194624;-0.163;5.296;7.970;0.020;0.125;0.232;
20200827_194624;-0.548;5.674;7.807;0.023;0.131;0.245;
20200827_194624;-0.414;5.739;7.714;0.006;0.088;0.156;
20200827_194624;-0.704;5.646;7.441;0.000;0.054;0.092;
20200827_194624;-0.867;5.523;7.616;-0.048;-0.112;-0.083;
20200827_194624;-0.455;6.218;7.887;-0.081;-0.272;-0.384;
20200827_194624;-1.113;5.552;7.338;-0.063;-0.409;-0.687;
20200827_194624;1.006;3.364;9.129;-0.030;-0.285;-0.132;
20200827_194624;0.551;3.206;9.234;-0.037;-0.207;-0.254;
20200827_194624;-0.397;3.888;7.288;-0.045;-0.072;0.173;
20200827_194625;-0.879;4.987;8.796;0.011;0.071;0.557;
20200827_194625;0.548;4.638;8.590;0.013;0.072;0.541;
20200827_194625;-0.156;4.374;8.344;-0.020;0.177;0.772;
20200827_194625;0.120;5.035;9.012;0.029;0.216;0.844;
20200827_194625;0.204;3.970;9.275;0.046;0.247;0.889;
20200827_194625;0.172;4.475;9.062;0.061;0.378;1.007;
20200827_194625;0.685;2.741;8.373;0.116;0.408;0.905;
20200827_194625;2.198;4.439;9.084;0.101;0.211;0.233;
20200827_194625;1.348;4.585;7.812;0.119;0.231;0.112;
20200827_194626;-0.450;4.606;8.291;0.091;0.200;0.203;
20200827_194626;0.069;3.170;8.909;0.048;0.111;0.451;
20200827_194626;2.449;2.602;9.955;0.070;0.270;0.692;
20200827_194626;0.790;3.883;8.698;0.103;0.270;0.482;
20200827_194626;0.421;4.949;8.416;0.034;0.079;-0.003;
20200827_194626;0.424;4.480;8.329;-0.045;-0.056;-0.211;
20200827_194626;0.378;4.506;8.162;-0.073;-0.089;-0.079;
20200827_194626;0.687;4.580;8.727;-0.052;-0.006;0.060;
20200827_194626;1.427;4.101;8.523;-0.006;0.166;0.398;
20200827_194627;1.482;4.764;8.193;0.066;0.363;0.933;
20200827_194627;1.401;6.297;7.331;0.108;0.342;0.848;
20200827_194627;1.657;4.472;9.120;0.127;0.231;0.284;
20200827_194627;1.264;5.136;6.481;0.165;0.156;-0.235;
20200827_194627;1.532;3.002;9.685;0.046;0.198;-0.270;
20200827_194627;0.900;4.788;8.535;0.100;-0.027;-0.976;
20200827_194627;-0.567;1.714;8.624;0.004;-0.278;-1.773;
20200827_194627;3.936;4.831;8.028;-0.025;-0.675;-2.382;
20200827_194627;-1.578;3.953;8.459;0.079;-0.569;-2.115;
20200827_194628;-1.360;5.490;7.827;0.179;-0.581;-1.488;
20200827_194628;-3.555;2.883;7.001;0.140;-0.444;-0.490;
20200827_194628;-2.957;4.135;8.736;0.207;-0.247;0.503;
20200827_194628;-1.707;4.767;8.416;0.152;-0.134;1.113;
20200827_194628;0.488;4.053;7.915;0.086;-0.052;0.968;
20200827_194628;1.147;6.146;8.272;-0.005;-0.023;0.352;
20200827_194628;0.407;6.385;8.868;0.079;0.001;0.347;
20200827_194628;-1.255;4.252;6.771;0.062;0.010;0.211;
20200827_194628;-0.055;2.861;9.768;0.052;0.133;0.242;
20200827_194628;1.336;5.157;7.381;0.006;0.114;0.140;
20200827_194629;0.302;6.845;8.250;0.043;-0.008;-0.066;
20200827_194629;0.536;3.792;10.190;0.053;-0.007;0.018;
20200827_194629;-0.208;6.038;10.068;0.070;0.025;0.288;
20200827_194629;1.788;6.005;9.773;-0.016;0.025;0.422;
20200827_194629;1.149;4.853;8.543;0.027;0.107;0.529;
20200827_194629;-0.421;3.677;9.002;-0.057;0.200;0.546;
20200827_194629;-0.534;5.160;7.391;-0.016;0.135;0.611;
20200827_194629;0.929;5.076;8.231;0.001;0.234;0.700;
20200827_194629;0.120;4.642;7.858;0.064;0.198;0.391;
20200827_194630;3.831;4.065;8.250;-0.001;0.115;0.172;
20200827_194630;-0.069;5.839;8.660;0.019;0.079;-0.060;
20200827_194630;2.023;3.833;11.078;0.023;0.064;0.086;
20200827_194630;2.212;4.662;9.033;0.064;0.036;-0.034;
20200827_194630;-0.127;3.156;9.522;-0.033;0.140;0.500;
20200827_194630;3.175;5.516;6.155;0.037;0.112;0.282;
20200827_194630;1.935;5.121;4.932;0.010;0.149;-0.047;
20200827_194630;0.639;4.894;10.254;0.010;0.167;0.091;
20200827_194630;1.099;5.260;10.807;-0.015;0.222;0.347;
20200827_194631;-0.227;4.104;10.724;0.049;0.282;0.426;
20200827_194631;1.176;4.391;8.985;0.048;0.258;0.144;
20200827_194631;3.388;4.156;8.823;0.015;0.129;-0.411;
20200827_194631;2.207;5.449;7.580;0.008;0.154;-0.423;
20200827_194631;2.121;4.080;10.676;0.005;0.029;-0.644;
20200827_194631;-0.445;4.073;5.631;0.052;-0.081;-0.760;
20200827_194631;-1.235;4.762;7.939;0.004;-0.133;-0.427;
20200827_194631;-0.405;4.903;9.354;-0.040;-0.142;-0.085;
20200827_194631;1.087;5.277;11.679;-0.041;-0.136;0.036;
20200827_194631;0.807;3.484;10.561;-0.047;-0.099;0.023;
20200827_194632;-0.876;6.804;3.692;0.043;-0.105;0.100;
20200827_194632;-0.158;5.813;9.122;0.018;-0.100;0.149;
20200827_194632;2.356;6.098;5.531;0.052;-0.164;-0.000;
20200827_194632;1.065;5.768;9.548;-0.100;-0.125;0.001;
20200827_194632;-0.333;5.557;6.584;0.054;0.053;0.538;
20200827_194632;0.781;3.718;11.011;-0.019;0.003;0.304;
20200827_194632;2.389;6.074;9.752;-0.041;0.032;0.035;
20200827_194632;-1.607;4.204;8.722;-0.024;-0.023;-0.016;
20200827_194632;-0.220;4.673;9.328;0.002;0.111;0.398;
20200827_194633;1.381;4.580;10.733;-0.002;0.233;0.642;
20200827_194633;0.565;3.503;11.756;0.100;0.185;0.075;
20200827_194633;1.010;3.364;9.725;0.013;0.155;0.048;
20200827_194633;0.888;5.291;7.733;0.061;0.168;0.048;
20200827_194633;1.358;5.626;7.331;0.087;0.099;-0.385;
20200827_194633;1.231;4.930;9.333;0.005;-0.212;-1.135;
20200827_194633;-3.165;3.977;8.748;-0.066;-0.411;-0.656;
20200827_194633;-0.678;6.268;0.730;0.045;-0.269;0.579;
20200827_194633;-1.544;3.565;11.083;-0.032;-0.078;1.084;
20200827_194633;-4.362;3.292;8.789;0.060;0.369;1.788;
20200827_194634;2.105;4.276;13.597;0.202;0.506;1.515;
20200827_194634;6.680;4.779;6.196;0.348;0.468;0.024;
20200827_194634;3.227;3.761;2.411;0.146;0.272;-1.080;
20200827_194634;1.120;4.192;10.724;-0.004;-0.053;-1.474;
20200827_194634;-1.281;4.401;11.681;-0.043;-0.101;-0.471;
20200827_194634;-2.514;4.477;9.467;0.030;0.157;0.614;
20200827_194634;1.350;4.683;9.141;0.051;0.223;0.640;
20200827_194634;1.506;4.568;6.551;0.046;0.087;-0.531;
20200827_194634;0.922;4.252;10.537;-0.039;-0.133;-1.014;
20200827_194635;0.266;5.504;3.517;-0.056;-0.339;-0.746;
20200827_194635;0.362;3.836;6.673;-0.068;-0.155;0.125;
20200827_194635;-2.519;2.377;12.486;-0.114;-0.095;0.135;
20200827_194635;-1.678;2.409;15.699;0.062;0.085;0.573;
20200827_194635;1.946;5.420;8.950;0.125;0.243;0.313;
20200827_194635;2.998;5.993;5.847;-0.054;0.095;-0.634;
20200827_194635;1.413;5.950;6.984;0.003;0.026;-0.825;
20200827_194635;0.227;3.275;11.700;0.015;-0.144;-0.966;
20200827_194635;-2.449;4.209;6.108;0.030;-0.278;-0.611;
20200827_194635;-1.745;4.458;7.827;0.065;-0.256;-0.116;
20200827_194636;-0.455;4.087;9.014;0.084;-0.176;-0.028;
20200827_194636;-1.544;4.973;8.100;0.070;-0.260;0.015;
20200827_194636;-0.481;4.470;7.412;0.080;-0.207;0.197;
20200827_194636;1.063;5.198;8.823;-0.059;-0.167;0.186;
20200827_194636;0.642;4.436;6.984;-0.003;-0.092;-0.018;
20200827_194636;-0.402;4.530;7.834;0.076;-0.156;0.032;
20200827_194636;-0.529;3.467;8.794;0.019;-0.085;0.181;
20200827_194636;-2.320;5.071;7.250;-0.027;-0.026;0.464;
20200827_194636;0.903;4.973;14.265;-0.166;0.105;0.613;
20200827_194637;0.373;4.853;5.459;-0.022;0.107;0.136;
20200827_194637;0.850;4.432;11.528;0.044;0.070;0.005;
20200827_194637;0.867;4.175;9.474;-0.062;0.040;-0.155;
20200827_194637;0.400;6.165;6.007;-0.012;-0.025;-0.121;
20200827_194637;-0.450;5.432;7.513;0.052;0.013;0.095;
20200827_194637;0.156;3.838;11.337;-0.086;0.009;0.229;
20200827_194637;-0.187;5.294;8.382;-0.053;0.148;0.373;
20200827_194637;1.176;4.408;10.551;-0.043;0.064;-0.016;
20200827_194637;-0.979;4.848;5.037;0.097;0.122;0.042;
20200827_194638;1.774;5.049;9.871;-0.006;0.112;0.044;
20200827_194638;0.599;6.012;7.693;-0.020;0.071;-0.199;
20200827_194638;-0.733;4.788;5.526;0.062;0.060;-0.033;
20200827_194638;0.527;2.794;5.777;0.051;0.019;0.026;
20200827_194638;0.917;4.520;6.129;0.062;0.004;-0.163;
20200827_194638;0.053;5.464;8.085;-0.038;-0.043;-0.164;
20200827_194638;0.711;5.698;9.428;-0.070;-0.071;-0.012;
20200827_194638;0.821;5.964;9.912;0.011;-0.080;-0.054;
20200827_194638;0.735;4.834;9.237;0.006;-0.093;0.005;
20200827_194638;-1.324;4.434;10.101;0.028;-0.024;0.170;
20200827_194639;-0.127;3.864;8.497;0.000;-0.012;0.331;
20200827_194639;0.776;4.094;11.049;0.006;0.116;0.189;
20200827_194639;-0.208;4.750;7.379;-0.132;0.103;0.105;
20200827_194639;1.034;5.282;10.812;0.050;0.080;0.055;
20200827_194639;0.074;2.512;7.585;0.025;0.099;-0.043;
20200827_194639;1.331;3.943;6.919;-0.018;0.115;-0.115;
20200827_194639;1.262;5.722;7.870;-0.020;0.013;-0.339;
20200827_194639;1.262;6.823;11.954;-0.064;-0.072;-0.320;
20200827_194639;-0.148;5.820;8.045;0.153;-0.059;-0.011;
20200827_194639;0.139;5.444;7.360;-0.029;-0.001;0.123;
20200827_194640;1.532;5.691;8.174;0.068;0.014;0.160;
20200827_194640;0.086;3.970;11.380;-0.068;0.055;0.130;
20200827_194640;0.941;5.808;6.048;-0.012;0.033;-0.230;
20200827_194640;0.747;5.215;6.211;0.026;-0.060;-0.242;
20200827_194640;-0.342;5.171;12.924;-0.057;-0.074;-0.094;
20200827_194640;0.666;4.930;6.230;0.076;-0.044;0.056;
20200827_194640;-0.230;4.618;6.646;0.086;-0.053;0.011;
20200827_194640;-0.445;2.818;6.340;-0.006;-0.026;0.079;
20200827_194640;0.735;4.599;7.312;-0.036;-0.010;0.072;
20200827_194641;0.579;4.602;11.825;-0.089;0.034;-0.044;
20200827_194641;0.864;4.958;8.748;0.016;-0.071;-0.253;
20200827_194641;0.737;4.357;6.838;-0.015;-0.050;-0.095;
20200827_194641;-1.195;5.059;11.744;-0.004;-0.044;0.122;
20200827_194641;-0.646;3.244;6.120;-0.097;-0.047;0.141;
20200827_194641;0.479;4.726;4.468;0.042;0.073;0.286;
20200827_194641;1.398;5.545;5.698;0.065;0.020;-0.070;
20200827_194641;0.357;4.015;8.765;-0.033;-0.003;-0.061;
20200827_194641;-0.117;4.401;11.428;0.045;0.008;-0.097;
20200827_194641;1.164;4.604;8.475;0.010;-0.076;-0.115;
20200827_194642;0.907;3.697;9.697;0.059;-0.093;-0.121;
20200827_194642;-0.900;5.021;14.739;-0.074;-0.036;0.169;
20200827_194642;0.733;5.013;8.100;0.023;0.006;0.364;
20200827_194642;0.730;3.905;6.675;-0.174;0.106;0.313;
20200827_194642;1.226;6.536;11.478;0.070;0.146;0.036;
20200827_194642;0.476;2.840;9.759;-0.046;0.114;-0.070;
20200827_194642;1.578;4.058;12.172;-0.093;0.019;-0.213;
20200827_194642;-0.364;3.263;6.134;0.053;0.023;-0.126;
20200827_194642;-0.699;4.140;7.089;0.057;0.023;0.022;
20200827_194643;1.575;4.635;8.557;0.066;-0.003;-0.267;
20200827_194643;-0.254;2.875;9.953;0.069;-0.171;-0.502;
20200827_194643;-2.160;3.057;12.234;0.067;-0.202;-0.110;
20200827_194643;-0.208;4.887;10.920;0.087;-0.053;0.592;
20200827_194643;-0.804;2.373;7.817;-0.078;0.045;0.643;
20200827_194643;0.261;3.642;9.538;-0.029;0.199;0.418;
20200827_194643;1.630;4.204;9.318;-0.118;0.230;0.103;
20200827_194643;0.543;8.205;13.759;0.189;0.221;-0.383;
20200827_194643;0.941;2.887;9.486;0.057;0.037;-0.600;
20200827_194643;1.889;0.977;32.398;-0.311;-0.006;-0.644;
20200827_194644;0.733;3.249;4.930;-0.087;-0.242;-0.606;
20200827_194644;-1.372;2.988;9.718;0.087;-0.311;-0.224;
20200827_194644;-2.454;5.042;17.368;-0.290;-0.175;0.379;
20200827_194644;1.326;5.176;7.173;-0.079;-0.014;0.391;
20200827_194644;-0.117;3.299;12.249;-0.002;-0.011;0.008;
20200827_194644;-0.417;3.148;9.244;-0.013;-0.096;-0.196;
20200827_194644;0.584;5.025;9.972;-0.036;-0.014;0.403;
20200827_194644;-0.146;3.519;6.759;-0.062;0.054;0.184;
20200827_194644;1.549;6.881;4.310;0.125;0.036;-0.078;
20200827_194645;2.179;1.501;8.253;-0.032;-0.036;-0.230;
20200827_194645;-0.062;4.872;4.913;0.016;-0.056;-0.134;
20200827_194645;-0.974;3.704;11.181;0.070;-0.014;0.062;
20200827_194645;0.297;4.903;7.051;0.028;-0.038;0.121;
20200827_194645;0.536;4.477;10.214;-0.124;-0.023;0.151;
20200827_194645;-0.151;4.769;11.042;0.062;0.011;0.037;
20200827_194645;1.180;4.171;9.673;0.073;0.004;0.066;
20200827_194645;-0.611;2.758;13.233;-0.147;0.052;0.154;
20200827_194645;0.271;5.502;7.539;-0.022;0.017;0.119;
20200827_194645;0.108;5.064;9.136;0.013;0.046;0.039;
20200827_194646;0.685;4.901;9.946;-0.062;0.064;0.065;
20200827_194646;0.737;4.221;11.899;-0.079;0.027;-0.068;
20200827_194646;0.397;4.700;3.304;0.251;0.035;0.019;
20200827_194646;-0.029;3.613;6.103;0.068;0.057;0.100;
20200827_194646;0.826;4.934;8.327;0.027;0.032;-0.062;
20200827_194646;1.398;6.098;6.072;-0.019;0.020;-0.112;
20200827_194646;0.955;5.562;4.997;-0.004;-0.016;-0.068;
20200827_194646;0.455;5.552;6.558;0.084;-0.010;-0.035;
20200827_194646;-0.117;4.760;8.576;0.042;0.003;0.043;
20200827_194647;0.682;5.492;7.743;0.019;0.017;0.084;
20200827_194647;0.271;4.717;6.802;0.035;0.030;0.082;
20200827_194647;1.398;5.131;4.635;0.025;0.017;-0.028;
20200827_194647;0.618;5.595;7.022;0.050;0.020;-0.116;
20200827_194647;0.723;4.707;7.803;0.014;-0.017;-0.117;
20200827_194647;0.354;3.996;11.202;-0.081;-0.022;-0.112;
20200827_194647;0.433;4.492;3.508;0.092;-0.033;-0.089;
20200827_194647;0.991;5.186;5.658;0.064;-0.033;-0.091;
20200827_194647;0.335;3.448;12.495;-0.015;-0.062;0.021;
20200827_194648;-0.536;2.923;14.590;-0.066;-0.028;0.037;
20200827_194648;0.658;3.484;6.797;-0.100;0.015;0.059;
20200827_194648;1.504;4.173;7.348;-0.019;0.018;0.156;
20200827_194648;-0.555;3.086;10.755;-0.073;0.034;0.010;
20200827_194648;0.618;4.228;9.256;0.001;0.030;-0.104;
20200827_194648;0.740;3.120;7.999;-0.092;0.032;-0.078;
20200827_194648;0.558;4.013;11.904;-0.062;-0.006;-0.142;
20200827_194648;-0.244;3.912;8.047;0.068;-0.035;-0.055;
20200827_194648;0.673;4.211;6.802;-0.015;0.005;-0.029;
20200827_194648;0.151;3.512;7.568;-0.083;-0.015;-0.033;
20200827_194649;0.800;3.816;7.671;-0.048;-0.047;-0.113;
20200827_194649;1.037;4.798;5.607;0.091;-0.080;-0.158;
20200827_194649;-0.136;5.224;11.363;0.063;-0.101;-0.079;
20200827_194649;0.034;5.346;7.151;0.132;-0.104;0.037;
20200827_194649;-0.711;2.037;7.254;-0.039;-0.026;0.199;
20200827_194649;-0.692;6.273;8.531;-0.089;0.021;0.353;
20200827_194649;0.110;5.861;10.590;-0.017;0.082;0.149;
20200827_194649;-0.776;4.480;13.125;0.055;0.043;0.037;
20200827_194649;0.728;6.972;10.300;0.099;0.057;0.083;
20200827_194650;0.323;2.780;12.866;-0.208;0.106;-0.082;
20200827_194650;0.634;4.951;10.901;-0.068;0.039;-0.174;
20200827_194650;0.120;3.728;5.567;0.115;0.071;-0.117;
20200827_194650;0.354;5.435;15.373;-0.066;0.005;-0.196;
20200827_194650;-0.520;3.230;9.752;-0.095;0.009;-0.050;
20200827_194650;-0.797;3.874;8.593;0.044;0.067;-0.019;
20200827_194650;0.259;5.069;9.218;-0.019;0.037;-0.047;
20200827_194650;0.163;4.020;3.855;0.209;0.034;-0.219;
20200827_194650;0.912;4.590;9.728;0.029;0.002;-0.286;
20200827_194650;0.876;4.911;9.895;-0.056;-0.061;-0.407;
20200827_194651;-0.510;5.459;4.834;-0.005;-0.090;-0.432;
20200827_194651;-0.160;3.982;7.082;0.083;-0.100;-0.052;
20200827_194651;0.601;2.052;11.779;-0.112;-0.071;-0.136;
20200827_194651;-0.029;4.932;7.020;-0.019;-0.127;-0.355;
20200827_194651;0.682;5.483;9.519;-0.055;-0.167;-0.332;
20200827_194651;1.010;4.949;11.222;0.094;-0.192;-0.187;
20200827_194651;-0.352;5.066;6.759;0.110;-0.181;-0.189;
20200827_194651;-0.603;4.860;10.956;0.115;-0.195;0.039;
20200827_194651;-0.158;5.217;10.836;-0.029;-0.087;0.215;
20200827_194652;-0.364;2.938;8.557;-0.101;-0.035;0.207;
20200827_194652;0.340;4.106;12.268;-0.083;-0.028;0.006;
20200827_194652;1.092;3.761;6.926;-0.013;-0.089;-0.228;
20200827_194652;0.239;5.363;6.400;0.019;-0.127;-0.235;
20200827_194652;-1.166;3.845;11.497;-0.190;-0.072;0.396;
20200827_194652;0.737;2.842;14.303;0.183;-0.017;0.189;
20200827_194652;1.899;3.996;13.982;0.021;-0.010;0.182;
20200827_194652;0.713;7.142;6.989;0.118;-0.039;-0.215;
20200827_194652;1.877;7.602;6.273;0.039;-0.158;-0.312;
20200827_194653;0.105;5.461;8.066;0.042;-0.085;0.119;
20200827_194653;0.989;1.307;9.029;-0.168;-0.053;0.127;
20200827_194653;0.464;5.145;5.665;0.058;-0.080;-0.093;
20200827_194653;0.891;4.049;10.144;-0.069;-0.109;0.073;
20200827_194653;-0.426;5.351;10.731;-0.024;-0.047;0.236;
20200827_194653;0.352;1.827;7.365;-0.088;-0.042;0.274;
20200827_194653;0.407;3.548;16.472;0.015;-0.052;0.344;
20200827_194653;-1.741;0.019;13.762;-0.031;0.091;0.721;
20200827_194653;2.411;6.998;-1.075;0.057;0.055;0.731;
20200827_194653;-0.089;1.990;11.559;-0.102;0.169;0.888;
20200827_194654;0.603;6.591;9.957;0.190;0.299;0.680;
20200827_194654;-3.519;3.057;11.186;0.078;0.411;0.378;
20200827_194654;3.345;6.385;3.043;0.196;0.290;0.487;
20200827_194654;3.139;5.444;7.659;0.353;0.373;-0.072;
20200827_194654;1.293;6.194;11.226;0.025;0.300;-0.150;
20200827_194654;0.871;0.781;10.120;-0.087;0.280;0.052;
20200827_194654;2.076;6.622;4.075;0.182;0.164;-0.207;
20200827_194654;-0.996;5.679;8.588;-0.051;0.165;-0.288;
20200827_194654;-1.839;5.195;13.331;-0.106;0.129;-0.141;
20200827_194655;-0.053;3.785;13.901;-0.011;-0.036;-0.571;
20200827_194655;2.037;6.017;-1.968;0.166;-0.196;-0.312;
20200827_194655;1.384;7.187;-0.615;0.243;-0.113;0.101;
20200827_194655;-1.664;2.116;10.865;-0.018;0.091;0.647;
20200827_194655;1.369;5.119;4.554;0.043;0.108;0.165;
20200827_194655;2.425;7.283;10.537;0.062;0.035;0.163;
20200827_194655;0.081;4.949;5.677;0.075;0.112;-0.036;
20200827_194655;-1.073;4.293;6.682;0.174;0.151;0.247;
20200827_194655;0.831;7.652;-4.503;0.226;0.167;0.065;
20200827_194655;0.706;7.154;9.421;0.079;0.075;0.066;
20200827_194656;1.369;2.179;7.417;0.027;0.010;-0.313;
20200827_194656;0.615;8.195;9.165;0.092;0.039;0.033;
20200827_194656;2.971;6.048;1.755;-0.005;-0.059;0.381;
20200827_194656;-0.055;5.629;-0.026;0.003;-0.032;-0.139;
20200827_194656;-3.057;10.168;11.803;0.512;0.138;0.091;
20200827_194656;-2.349;9.804;14.887;0.319;0.038;0.442;
20200827_194656;-0.002;-1.623;2.490;0.151;0.136;0.416;
20200827_194656;-1.252;-0.742;13.060;0.011;0.102;0.151;
20200827_194656;2.619;13.245;11.552;-0.170;-0.033;-0.398;
20200827_194657;0.809;4.556;3.644;-0.081;-0.154;-0.555;
20200827_194657;-0.737;11.013;6.551;0.136;-0.106;-0.057;
20200827_194657;1.058;10.376;2.868;0.171;0.075;0.556;
20200827_194657;-0.338;0.136;9.720;0.091;0.200;0.384;
20200827_194657;-0.948;7.068;9.081;-0.013;0.163;0.046;
20200827_194657;1.935;10.151;7.712;-0.077;-0.029;-0.222;
20200827_194657;1.152;5.270;12.342;-0.108;-0.007;-0.030;
20200827_194657;1.647;5.083;6.876;0.009;-0.067;-0.082;
20200827_194657;-0.036;3.639;8.241;-0.003;0.052;0.081;
20200827_194657;2.207;4.654;-8.799;-0.005;0.119;-0.041;
20200827_194658;-0.089;6.608;23.525;-0.044;0.056;-0.218;
20200827_194658;-2.236;3.084;34.421;-0.301;-0.036;-0.462;
20200827_194658;3.575;10.760;9.783;0.237;0.086;-0.059;
20200827_194658;1.994;8.741;-7.633;0.274;0.043;-0.125;
20200827_194658;-0.824;0.622;-0.213;-0.167;-0.116;-0.165;
20200827_194658;-1.451;7.855;7.934;0.064;-0.042;-0.231;
20200827_194658;0.247;5.787;7.063;-0.249;-0.159;-0.241;
20200827_194658;-0.321;7.898;14.516;-0.149;-0.069;-0.223;
20200827_194658;0.275;4.626;7.942;-0.065;-0.190;-0.302;
20200827_194659;-0.148;6.591;10.539;0.032;-0.237;0.075;
20200827_194659;-0.594;4.858;17.308;-0.071;0.088;0.374;
20200827_194659;0.486;4.729;4.199;0.070;0.064;-0.048;
20200827_194659;1.298;4.216;5.938;0.100;-0.073;-0.446;
20200827_194659;-2.658;5.097;7.140;0.025;0.033;0.392;
20200827_194659;1.465;6.270;5.681;0.171;-0.012;0.021;
20200827_194659;0.594;4.434;10.420;0.044;-0.036;-0.260;
20200827_194659;-0.951;7.338;5.804;-0.007;0.014;-0.150;
20200827_194659;0.895;5.179;10.597;0.057;-0.129;-0.289;
20200827_194659;-0.266;4.836;12.060;0.018;-0.090;-0.003;
20200827_194700;0.136;5.162;7.633;0.222;-0.138;0.101;
20200827_194700;1.616;3.376;6.033;0.144;0.037;-0.159;
20200827_194700;-1.640;7.247;13.024;-0.170;0.075;0.123;
20200827_194700;0.962;8.272;6.627;0.087;0.086;-0.125;
20200827_194700;0.807;5.930;8.720;0.086;-0.066;-0.264;
20200827_194700;0.105;6.311;13.068;-0.064;0.006;-0.162;
20200827_194700;-0.220;4.322;18.725;-0.128;-0.120;-0.137;
20200827_194700;-1.674;6.196;3.938;-0.112;-0.178;0.135;
20200827_194700;-0.196;3.608;5.435;0.048;-0.108;0.259;
20200827_194701;-1.745;3.168;9.476;-0.054;-0.000;0.441;
20200827_194701;0.417;5.942;14.521;-0.230;-0.040;0.279;
20200827_194701;2.272;8.583;2.907;0.083;0.047;0.093;
20200827_194701;0.354;4.286;14.600;-0.167;0.011;-0.181;
20200827_194701;-0.278;7.020;7.614;-0.032;-0.002;-0.031;
20200827_194701;2.547;0.407;11.475;0.013;0.101;-0.052;
20200827_194701;-0.543;3.618;5.521;-0.033;0.043;0.024;
20200827_194701;-1.693;5.571;8.528;-0.025;0.157;0.150;
20200827_194701;2.155;4.300;4.606;0.305;-0.012;-0.621;
20200827_194702;1.092;6.069;11.638;0.085;-0.078;-0.447;
20200827_194702;-0.522;3.960;8.574;0.020;0.059;0.044;
20200827_194702;-0.280;3.517;7.113;-0.181;0.060;0.156;
20200827_194702;-4.118;4.640;7.484;0.070;-0.207;-0.917;
20200827_194702;0.237;5.547;10.664;0.057;-0.142;-0.205;
20200827_194702;1.779;4.963;20.789;-0.080;-0.029;0.074;
20200827_194702;-7.266;6.498;-7.800;0.050;-0.302;-0.284;
20200827_194702;-0.989;3.728;5.799;0.210;-0.025;0.140;
20200827_194702;1.803;1.851;22.505;0.136;0.046;0.317;
20200827_194702;-5.267;0.939;0.666;-0.196;0.166;1.013;
20200827_194703;0.426;5.885;-15.656;-0.135;0.307;-0.584;
20200827_194703;13.657;-2.899;10.439;0.093;-0.154;-1.764;
20200827_194703;-3.163;10.575;5.476;0.139;-0.314;-0.326;
20200827_194703;-3.929;5.933;-11.899;0.691;0.003;0.341;
20200827_194703;-5.744;14.657;21.256;0.039;0.145;0.312;
20200827_194703;3.239;3.553;-1.638;0.078;-0.020;0.035;
20200827_194703;2.610;12.254;16.764;0.548;0.032;0.292;
20200827_194703;-1.834;0.378;15.040;-0.104;0.103;0.275;
20200827_194703;-2.174;5.713;-11.763;0.205;0.204;0.160;
20200827_194703;1.604;11.461;-2.399;0.029;-0.196;0.139;
20200827_194704;1.097;4.142;18.033;-0.015;0.136;0.043;
20200827_194704;2.100;9.773;0.352;0.361;0.069;0.108;
20200827_194704;4.274;-5.715;9.632;-0.236;0.123;0.029;
20200827_194704;1.348;1.396;7.705;-0.098;0.039;0.029;
20200827_194704;0.527;7.065;9.131;-0.183;0.082;-0.098;
20200827_194704;0.397;5.629;10.206;-0.044;0.090;-0.129;
20200827_194704;0.678;2.492;13.194;-0.130;0.158;0.095;
20200827_194704;2.370;5.516;5.001;-0.069;0.076;-0.194;
20200827_194704;0.184;3.886;10.302;0.052;0.065;-0.539;
20200827_194705;-0.788;4.034;9.471;0.023;-0.040;-0.465;
20200827_194705;-1.204;7.025;11.313;0.061;-0.040;0.081;
20200827_194705;0.699;3.235;9.515;-0.116;-0.171;-0.095;
20200827_194705;0.656;7.005;3.158;0.192;-0.222;-0.349;
20200827_194705;-0.290;4.065;12.931;-0.068;-0.167;0.286;
20200827_194705;2.749;4.219;9.699;0.073;-0.204;0.369;
20200827_194705;3.409;3.148;-7.547;0.441;-0.102;0.166;
20200827_194705;1.853;4.561;10.532;0.038;0.176;0.049;
20200827_194705;1.693;8.973;-1.951;-0.198;-0.108;0.142;
20200827_194705;0.680;0.783;4.353;0.434;0.096;0.058;
20200827_194706;1.302;8.052;19.431;0.059;0.040;0.111;
20200827_194706;-0.388;6.065;12.098;0.010;0.035;0.059;
20200827_194706;0.371;-2.035;2.148;0.096;-0.013;0.131;
20200827_194706;1.216;2.677;6.385;0.022;0.016;0.106;
20200827_194706;-4.142;6.735;6.570;0.119;0.054;0.154;
20200827_194706;1.695;4.563;-7.896;0.269;0.106;0.427;
20200827_194706;1.130;9.239;19.635;-0.497;0.227;0.509;
20200827_194706;2.806;8.957;-5.279;-0.051;0.134;0.006;
20200827_194706;-2.112;-2.564;6.584;-0.045;0.304;-0.031;
20200827_194707;0.857;6.407;9.203;-0.160;0.163;-0.391;
20200827_194707;-1.209;6.972;6.431;-0.035;0.024;-0.341;
20200827_194707;0.742;1.980;13.817;-0.085;-0.057;-0.156;
20200827_194707;-0.318;6.598;7.913;0.062;0.063;-0.029;
20200827_194707;0.809;2.334;5.236;-0.072;-0.100;-0.271;
20200827_194707;-0.816;3.278;4.041;0.077;-0.124;-0.459;
20200827_194707;-0.464;3.321;9.819;-0.095;-0.129;-0.260;
20200827_194707;0.599;4.532;9.910;0.000;-0.174;-0.174;
20200827_194707;2.121;3.103;8.856;0.156;-0.127;-0.094;
20200827_194708;0.330;5.011;5.277;0.088;-0.128;-0.137;
20200827_194708;1.195;5.140;8.981;-0.209;-0.082;-0.000;
20200827_194708;-2.028;4.183;-7.736;0.160;-0.080;-0.189;
20200827_194708;0.567;5.545;15.167;0.082;-0.036;-0.065;
20200827_194708;0.072;1.829;8.250;0.140;-0.216;0.200;
20200827_194708;-0.879;-0.105;7.834;0.035;0.022;0.327;
20200827_194708;-3.776;5.935;3.383;-0.118;0.068;0.292;
20200827_194708;-0.512;13.001;17.521;-0.290;0.063;0.582;
20200827_194708;0.297;8.674;14.030;-0.130;0.003;0.460;
20200827_194708;2.483;-0.848;-6.560;0.289;-0.019;-0.260;
20200827_194709;1.099;8.744;23.114;-0.267;0.051;0.091;
20200827_194709;0.742;10.108;16.455;-0.200;0.100;-0.125;
20200827_194709;-2.907;4.925;37.723;-0.173;0.063;-0.009;
20200827_194709;-3.800;6.850;-21.059;-0.025;-0.113;0.078;
20200827_194709;0.888;0.591;6.891;0.081;-0.157;0.357;
20200827_194709;-0.283;7.592;15.751;-0.066;0.020;0.016;
20200827_194709;3.407;6.081;12.409;0.143;0.048;0.036;
20200827_194709;-1.597;7.333;11.104;-0.032;0.006;0.235;
20200827_194709;2.097;5.109;8.938;0.100;0.034;0.154;
20200827_194710;-0.158;2.025;5.392;0.050;0.172;0.099;
20200827_194710;-0.036;5.253;12.258;-0.037;0.111;-0.049;
20200827_194710;0.673;5.538;3.270;0.009;0.041;0.138;
20200827_194710;1.013;3.165;5.274;0.250;0.139;-0.027;
20200827_194710;-0.412;3.170;12.474;-0.206;0.070;0.010;
20200827_194710;-0.503;3.898;6.560;-0.124;0.095;0.170;
20200827_194710;0.529;3.965;4.415;-0.124;-0.007;0.096;
20200827_194710;-0.532;4.755;10.941;0.132;0.154;0.190;
20200827_194710;-1.530;3.721;8.562;-0.012;0.120;0.244;
20200827_194710;4.326;1.827;-5.361;0.402;0.038;-0.158;
20200827_194711;1.607;4.697;0.843;-0.154;0.058;-0.095;
20200827_194711;0.577;16.336;6.280;0.107;0.169;-0.492;
20200827_194711;-0.587;-9.400;-1.188;-0.209;0.058;-0.294;
20200827_194711;10.681;3.103;2.375;-0.253;-0.142;-0.317;
20200827_194711;9.182;12.505;22.089;-0.014;-0.295;-0.027;
20200827_194711;2.473;4.166;7.922;0.302;-0.094;-0.049;
20200827_194711;-0.098;6.893;5.722;-0.105;-0.079;-0.028;
20200827_194711;1.832;1.834;-0.934;-0.088;-0.322;-0.211;
20200827_194711;-3.658;2.291;3.436;-0.080;0.052;-0.077;
20200827_194712;-0.050;12.325;0.156;0.125;-0.096;0.263;
20200827_194712;3.010;-0.982;6.536;-0.199;-0.045;0.044;
20200827_194712;1.358;8.238;9.029;-0.296;0.027;-0.188;
20200827_194712;-0.350;4.535;3.740;0.087;0.068;-0.220;
20200827_194712;-0.862;3.979;4.975;-0.029;0.052;-0.409;
20200827_194712;-0.187;5.902;12.617;-0.028;0.039;-0.299;
20200827_194712;1.319;5.380;9.620;-0.060;-0.143;-0.420;
20200827_194712;-0.481;4.851;5.131;0.126;-0.124;-0.258;
20200827_194712;1.111;6.088;7.597;0.109;-0.215;-0.279;
20200827_194713;-0.230;4.073;10.999;0.160;-0.043;0.081;
20200827_194713;0.275;2.658;7.796;0.112;-0.153;0.003;
20200827_194713;2.116;3.792;9.309;-0.025;-0.014;-0.166;
20200827_194713;-0.735;4.010;12.376;-0.102;-0.051;-0.284;
20200827_194713;-1.616;4.563;1.525;0.000;-0.027;-0.199;
20200827_194713;1.853;4.606;10.702;0.144;-0.077;-0.482;
20200827_194713;1.985;2.152;7.884;-0.137;-0.201;-0.678;
20200827_194713;-2.172;8.231;29.142;-0.176;-0.069;-0.166;
20200827_194713;-1.525;6.898;1.391;-0.299;-0.059;-0.469;
20200827_194713;0.651;9.586;-1.899;0.370;-0.104;0.014;
20200827_194714;-2.662;0.946;11.210;0.662;-0.028;-0.043;
20200827_194714;2.179;5.428;0.735;0.230;-0.000;-0.099;
20200827_194714;1.796;1.851;9.867;-0.054;-0.106;-0.621;
20200827_194714;0.685;5.387;11.839;0.051;-0.108;-0.620;
20200827_194714;-1.542;5.145;12.814;0.155;-0.112;-0.460;
20200827_194714;-2.746;4.101;-10.216;0.291;-0.226;-0.697;
20200827_194714;-0.421;-4.108;40.448;0.001;-0.244;-0.440;
20200827_194714;-9.615;0.261;7.341;0.021;-0.031;-0.760;
20200827_194714;-4.827;8.921;8.787;-0.029;-0.237;-0.325;
20200827_194715;-1.784;8.212;10.776;0.486;-0.127;-0.246;
20200827_194715;-1.841;1.970;11.739;-0.045;-0.160;-0.452;
20200827_194715;1.223;5.478;8.794;0.275;-0.350;-0.585;
20200827_194715;0.541;7.192;11.770;0.155;-0.323;-0.469;
20200827_194715;-0.871;3.876;8.097;0.118;-0.312;-0.337;
20200827_194715;-0.156;5.617;9.316;0.026;-0.271;-0.217;
20200827_194715;-0.084;5.588;8.155;0.228;-0.275;-0.311;
20200827_194715;-0.175;3.778;11.413;0.039;-0.207;0.068;
20200827_194715;0.017;5.569;6.965;-0.033;-0.213;-0.118;
20200827_194715;-0.737;5.167;3.158;0.086;-0.231;-0.107;
20200827_194716;0.215;3.450;7.101;0.189;-0.365;-0.117;
20200827_194716;-0.797;6.517;14.463;-0.012;-0.212;0.215;
20200827_194716;-0.915;5.198;5.222;-0.025;-0.257;0.081;
20200827_194716;-0.776;6.285;5.775;-0.200;-0.209;0.303;
20200827_194716;1.283;5.763;4.381;0.221;-0.171;-0.112;
20200827_194716;-0.895;-0.283;4.662;0.162;0.051;0.327;
20200827_194716;0.646;4.834;6.381;-0.030;0.053;0.487;
20200827_194716;0.936;5.622;6.965;-0.017;0.193;0.191;
20200827_194716;-0.450;4.322;10.599;0.091;0.198;0.104;
20200827_194717;1.803;6.491;14.494;0.033;-0.009;-0.409;
20200827_194717;-1.276;4.044;6.823;0.100;-0.006;-0.166;
20200827_194717;0.211;5.576;10.242;0.093;-0.134;-0.001;
20200827_194717;0.886;2.138;12.134;-0.115;-0.187;-0.019;
20200827_194717;0.773;6.721;7.101;-0.074;0.009;0.333;
20200827_194717;2.308;7.848;8.890;-0.089;-0.001;0.146;
20200827_194717;0.958;4.918;9.014;-0.021;0.147;0.096;
20200827_194717;0.871;5.756;3.433;0.282;0.109;0.003;
20200827_194717;0.247;4.396;7.515;-0.016;0.078;0.076;
20200827_194717;1.034;4.999;6.993;0.079;0.121;0.103;
20200827_194718;-0.053;4.518;4.915;0.060;0.200;-0.105;
20200827_194718;-1.092;4.934;12.299;0.013;0.033;-0.305;
20200827_194718;0.316;3.876;10.946;-0.045;-0.018;-0.197;
20200827_194718;-0.136;5.787;8.464;-0.029;-0.024;-0.084;
20200827_194718;2.959;5.883;5.607;0.052;-0.015;-0.238;
20200827_194718;0.934;6.203;7.800;0.063;-0.128;-0.468;
20200827_194718;-0.311;2.464;8.753;-0.108;-0.075;-0.296;
20200827_194718;-1.077;6.527;6.749;-0.127;-0.139;-0.044;
20200827_194718;-0.019;5.303;2.298;0.298;-0.016;0.053;
20200827_194718;-0.285;6.500;7.822;0.143;-0.036;0.256;
20200827_194719;0.735;2.930;6.680;-0.133;-0.104;-0.089;
20200827_194719;-0.383;4.673;5.296;-0.061;-0.078;-0.097;
20200827_194719;-0.079;6.419;9.498;0.002;-0.098;0.205;
20200827_194719;1.049;2.514;15.457;0.015;-0.113;0.189;
20200827_194719;0.536;5.128;10.183;-0.168;-0.066;-0.142;
20200827_194719;2.126;6.630;8.279;-0.012;-0.204;-0.214;
20200827_194719;-0.702;1.168;11.401;0.019;-0.072;0.187;
20200827_194719;-1.348;6.287;11.061;-0.033;0.030;0.693;
20200827_194719;-1.149;4.477;10.939;-0.115;0.151;0.405;
20200827_194720;0.697;3.958;8.720;-0.002;0.199;0.217;
20200827_194720;0.208;2.066;10.271;-0.062;0.211;0.123;
20200827_194720;1.609;2.897;12.589;-0.171;0.023;-0.431;
20200827_194720;0.496;4.372;6.503;-0.025;-0.092;-0.503;
20200827_194720;-0.505;5.516;8.253;0.096;-0.011;0.152;
20200827_194720;2.081;4.391;7.479;-0.084;-0.075;0.048;
20200827_194720;-1.549;7.068;2.624;0.139;0.109;0.185;
20200827_194720;0.951;3.929;12.076;-0.106;0.089;0.107;
20200827_194720;-1.231;3.644;9.369;0.009;0.158;-0.025;
20200827_194721;-0.505;5.897;10.422;-0.105;0.115;0.039;
20200827_194721;-0.407;3.745;8.835;-0.086;0.068;-0.030;
20200827_194721;1.628;6.242;3.287;0.038;-0.108;-0.386;
20200827_194721;-1.350;4.954;-0.110;0.094;-0.128;-0.224;
20200827_194721;0.333;5.562;7.295;0.126;-0.224;-0.144;
20200827_194721;0.223;6.002;7.087;0.034;-0.195;0.308;
20200827_194721;-1.302;3.369;11.404;-0.149;-0.016;0.798;
20200827_194721;1.032;5.243;1.772;0.096;0.058;0.642;
20200827_194721;1.070;3.912;3.737;0.178;0.218;0.474;
20200827_194722;0.728;5.406;2.650;-0.037;0.272;0.142;
20200827_194722;-0.505;6.347;15.744;-0.309;0.291;0.030;
20200827_194722;1.911;2.057;6.460;0.077;0.088;-0.128;
20200827_194722;-0.654;9.840;7.700;-0.103;0.089;0.007;
20200827_194722;0.785;8.061;4.918;0.011;0.065;0.022;
20200827_194722;1.444;6.883;10.259;0.018;0.035;-0.484;
20200827_194722;1.575;3.788;6.764;0.052;-0.049;-0.106;
20200827_194722;0.223;3.026;3.639;0.009;-0.079;0.041;
20200827_194722;-0.615;4.800;8.011;0.033;0.037;0.190;
20200827_194722;-0.646;5.124;9.922;-0.069;0.059;0.164;
20200827_194723;-0.915;4.865;2.813;-0.002;0.149;0.412;
20200827_194723;0.555;2.765;10.934;-0.135;0.103;0.041;
20200827_194723;2.210;2.267;0.510;0.706;0.205;-0.027;
20200827_194723;0.618;0.649;-11.349;0.043;0.059;-0.246;
20200827_194723;1.020;2.746;17.822;-0.025;-0.122;0.165;
20200827_194723;-0.251;-5.533;25.769;0.207;0.037;-0.088;
20200827_194723;-0.848;5.904;7.973;-0.138;0.095;0.064;
20200827_194723;0.929;3.163;8.614;0.162;0.035;-0.187;
20200827_194723;2.004;10.259;15.605;-0.011;-0.027;0.063;
20200827_194723;-0.476;7.494;14.447;0.186;-0.028;0.268;
20200827_194724;-0.105;10.649;15.244;0.059;0.133;-0.192;
20200827_194724;1.664;7.717;15.941;-0.011;-0.055;-0.398;
20200827_194724;2.303;0.448;0.543;-0.040;-0.132;-0.336;
20200827_194724;2.140;4.439;10.901;-0.012;-0.066;-0.404;
20200827_194724;0.359;4.195;7.223;-0.176;-0.094;-0.348;
20200827_194724;-1.432;4.865;16.403;0.168;0.015;0.102;
20200827_194724;0.338;4.820;14.921;-0.007;-0.036;0.047;
20200827_194724;2.107;5.459;7.319;-0.023;0.055;-0.243;
20200827_194724;0.778;5.339;10.376;0.034;-0.005;-0.321;
20200827_194725;-0.785;5.265;8.677;0.000;0.023;-0.244;
20200827_194725;1.362;-1.657;6.337;0.097;-0.127;-0.372;
20200827_194725;-1.757;6.206;7.640;0.079;-0.094;-0.122;
20200827_194725;3.943;0.129;-14.892;0.189;-0.092;-0.304;
20200827_194725;-0.577;2.109;14.657;0.085;-0.068;-0.405;
20200827_194725;2.239;5.588;13.575;0.097;-0.218;-0.148;
20200827_194725;1.683;10.733;11.916;-0.135;-0.046;-0.038;
20200827_194725;1.300;6.505;11.267;0.034;-0.016;-0.324;
20200827_194725;-0.687;6.800;7.039;0.027;-0.142;-0.567;
20200827_194725;-0.989;2.619;4.264;0.116;-0.181;-0.107;
20200827_194726;-1.061;3.290;13.127;0.034;-0.287;-0.192;
20200827_194726;0.529;4.101;5.215;0.015;-0.362;-0.195;
20200827_194726;-1.614;4.209;9.565;0.025;-0.283;0.203;
20200827_194726;0.943;5.138;8.047;-0.070;-0.296;0.233;
20200827_194726;-1.391;2.990;13.551;-0.055;-0.113;0.487;
20200827_194726;-0.251;5.909;13.846;-0.155;-0.094;0.393;
20200827_194726;0.455;3.682;7.752;0.119;0.195;0.522;
20200827_194726;-0.163;8.653;16.410;-0.046;0.189;0.231;
20200827_194726;0.948;3.943;11.152;-0.007;0.170;0.055;
20200827_194727;1.803;6.495;6.062;0.081;0.124;-0.334;
20200827_194727;1.240;4.367;8.665;-0.012;0.096;-0.305;
20200827_194727;0.467;6.378;5.942;0.119;-0.072;-0.357;
20200827_194727;-0.555;4.482;12.543;0.050;-0.012;0.064;
20200827_194727;0.797;4.460;9.041;-0.040;-0.034;0.040;
20200827_194727;0.721;4.429;7.367;0.191;-0.066;0.034;
20200827_194727;0.781;4.681;12.972;-0.029;0.042;0.181;
20200827_194727;-1.053;5.004;3.938;-0.037;0.034;0.014;
20200827_194727;1.070;5.186;9.249;0.064;0.006;-0.259;
20200827_194727;-0.922;4.762;11.123;-0.033;-0.069;-0.225;
20200827_194728;1.410;4.355;6.802;-0.033;-0.052;-0.155;
20200827_194728;0.196;4.262;9.069;-0.034;-0.153;-0.008;
20200827_194728;2.205;4.882;10.652;-0.072;-0.059;0.144;
20200827_194728;1.891;4.235;7.312;0.019;-0.113;-0.073;
20200827_194728;-0.601;3.606;10.693;-0.136;-0.105;-0.127;
20200827_194728;1.154;5.313;4.106;0.108;-0.047;0.286;
20200827_194728;0.702;5.612;10.683;0.218;-0.016;0.155;
20200827_194728;-1.413;3.357;10.908;-0.046;0.052;0.142;
20200827_194728;0.563;5.940;17.921;-0.135;0.017;0.074;
20200827_194729;-0.620;5.284;7.752;0.029;0.039;0.074;
20200827_194729;1.937;3.383;11.083;-0.085;0.002;-0.063;
20200827_194729;0.180;5.772;5.674;-0.102;-0.036;-0.016;
20200827_194729;0.134;6.280;7.025;0.003;0.009;0.023;
20200827_194729;0.225;6.184;9.996;-0.054;0.125;0.168;
20200827_194729;1.616;3.804;6.732;0.004;0.043;0.040;
20200827_194729;-0.994;3.610;5.428;-0.067;0.190;-0.014;
20200827_194729;0.261;4.063;11.542;-0.053;0.013;-0.195;
20200827_194729;0.136;3.965;6.395;0.077;-0.008;-0.254;
20200827_194729;-1.197;5.332;5.801;-0.045;-0.048;-0.020;
20200827_194730;-0.575;5.107;9.622;-0.034;0.055;-0.103;
20200827_194730;1.219;5.897;9.811;0.080;-0.040;-0.103;
20200827_194730;-0.053;6.800;7.922;-0.069;-0.155;-0.129;
20200827_194730;0.316;5.195;11.557;-0.048;-0.118;-0.106;
20200827_194730;-0.551;4.614;7.695;0.085;-0.002;0.200;
20200827_194730;0.062;4.884;5.614;0.042;0.040;0.238;
20200827_194730;-0.792;4.616;8.784;-0.079;0.079;0.180;
20200827_194730;-0.347;2.830;8.315;-0.029;0.018;-0.070;
20200827_194730;0.146;3.158;10.676;-0.047;-0.040;-0.199;
20200827_194731;-1.223;4.633;10.791;-0.029;-0.056;-0.187;
20200827_194731;0.400;5.176;8.145;0.003;-0.055;0.074;
20200827_194731;0.757;2.313;7.810;-0.039;-0.048;0.141;
20200827_194731;0.208;4.776;7.839;0.039;0.065;0.106;
20200827_194731;0.843;6.093;13.254;-0.068;0.058;0.096;
20200827_194731;0.383;6.220;6.385;0.032;0.108;-0.002;
20200827_194731;0.326;6.045;12.251;-0.096;0.111;-0.106;
20200827_194731;1.319;4.278;10.642;0.026;0.014;-0.256;
20200827_194731;1.240;7.075;4.707;0.198;-0.064;-0.359;
20200827_194731;0.642;6.388;7.894;0.055;-0.133;-0.225;
20200827_194732;0.613;6.148;7.987;0.020;-0.171;-0.148;
20200827_194732;-0.242;4.422;9.069;-0.030;-0.149;0.178;
20200827_194732;0.103;4.214;8.710;-0.047;-0.087;0.332;
20200827_194732;-0.060;4.350;4.374;0.107;0.052;0.402;
20200827_194732;0.376;4.535;6.632;0.073;-0.000;0.319;
20200827_194732;-0.395;4.712;6.381;-0.001;0.086;0.191;
20200827_194732;0.340;0.239;12.878;-0.126;-0.009;-0.018;
20200827_194732;0.357;3.938;8.657;-0.054;0.123;0.186;
20200827_194732;0.268;3.680;7.041;-0.027;0.089;0.055;
20200827_194733;0.871;5.531;11.155;-0.104;0.071;-0.018;
20200827_194733;-0.486;4.501;19.704;-0.061;0.029;0.038;
20200827_194733;0.443;4.436;7.657;0.100;0.081;0.233;
20200827_194733;1.413;2.808;7.286;0.137;0.148;0.169;
20200827_194733;0.589;4.604;11.150;-0.019;0.143;-0.085;
20200827_194733;0.464;3.857;9.290;0.017;0.201;-0.000;
20200827_194733;1.824;3.953;8.487;0.113;0.054;-0.453;
20200827_194733;0.769;6.232;4.930;-0.012;0.102;-0.497;
20200827_194733;-0.615;4.178;8.363;-0.017;-0.092;-0.310;
20200827_194734;0.663;6.902;8.296;0.030;-0.111;-0.088;
20200827_194734;0.584;3.242;10.779;-0.043;-0.193;0.117;
20200827_194734;0.632;3.687;7.774;0.042;0.018;0.276;
20200827_194734;1.422;5.191;11.899;-0.023;0.042;-0.159;
20200827_194734;0.026;5.315;4.542;0.102;0.010;-0.213;
20200827_194734;0.297;2.392;8.396;0.029;-0.022;-0.040;
20200827_194734;-0.096;4.259;6.979;0.012;-0.197;-0.289;
20200827_194734;-0.409;3.627;8.657;-0.024;-0.153;-0.056;
20200827_194734;-0.776;3.462;4.403;0.059;-0.178;0.130;
20200827_194734;-1.626;8.420;5.511;-0.106;-0.150;0.263;
20200827_194735;0.919;4.913;10.750;-0.012;-0.085;0.087;
20200827_194735;0.144;10.269;9.606;0.140;0.049;0.185;
20200827_194735;3.445;3.594;6.438;0.055;-0.038;-0.075;
20200827_194735;-0.601;4.702;11.351;-0.052;0.039;0.081;
20200827_194735;-1.037;5.023;5.262;-0.053;0.098;0.225;
20200827_194735;-0.247;5.516;9.467;-0.079;0.066;0.212;
20200827_194735;1.472;5.737;6.610;0.004;-0.027;0.022;
20200827_194735;-0.101;5.653;9.507;0.020;0.004;0.101;
20200827_194735;-0.113;4.264;11.856;-0.113;0.050;0.183;
20200827_194736;1.164;5.341;7.283;-0.003;0.083;0.055;
20200827_194736;0.259;5.511;10.980;-0.012;0.063;0.048;
20200827_194736;1.137;6.740;13.400;-0.101;0.102;0.008;
20200827_194736;-1.238;5.064;7.949;0.046;0.099;-0.081;
20200827_194736;0.792;6.819;10.226;0.065;0.185;0.476;
20200827_194736;0.630;4.599;7.513;0.046;0.135;-0.154;
20200827_194736;-0.194;5.835;10.496;0.084;0.084;-0.043;
20200827_194736;1.748;5.303;10.424;0.033;-0.018;-0.370;
20200827_194736;1.326;5.476;6.369;0.048;-0.089;-0.247;
20200827_194736;-0.888;4.623;10.843;-0.008;0.002;-0.031;
20200827_194737;0.603;3.069;6.136;0.047;0.045;0.123;
20200827_194737;-0.163;4.535;9.867;-0.005;0.114;0.085;
20200827_194737;2.042;4.286;8.315;-0.014;0.070;-0.120;
20200827_194737;0.326;4.834;11.219;-0.011;0.076;-0.319;
20200827_194737;0.340;4.377;6.515;0.090;0.036;-0.420;
20200827_194737;1.070;4.621;9.747;0.074;-0.145;-0.522;
20200827_194737;-0.029;4.178;4.903;-0.057;-0.167;-0.354;
20200827_194737;-0.201;5.751;10.760;-0.022;-0.121;-0.087;
20200827_194737;-1.221;4.805;2.684;0.093;-0.128;-0.166;
20200827_194738;-0.862;4.863;8.033;0.042;-0.005;0.186;
20200827_194738;0.129;5.160;5.310;0.052;-0.051;-0.181;
20200827_194738;0.199;3.170;8.933;-0.006;-0.010;-0.320;
20200827_194738;3.091;4.159;3.467;0.325;-0.183;-0.569;
20200827_194738;-2.033;6.766;10.800;0.064;-0.204;-0.268;
20200827_194738;1.961;2.243;12.409;-0.134;-0.232;-0.100;
20200827_194738;-1.659;3.630;4.650;-0.019;-0.149;0.050;
20200827_194738;-0.417;2.959;17.830;0.147;-0.124;0.089;
20200827_194738;0.129;2.579;4.559;0.194;-0.041;0.015;
20200827_194739;0.883;6.445;8.780;-0.073;0.003;-0.033;
20200827_194739;0.575;4.599;3.388;-0.027;-0.089;-0.332;
20200827_194739;-0.802;4.523;4.654;-0.001;-0.068;-0.181;
20200827_194739;0.575;3.359;11.267;-0.032;-0.078;-0.192;
20200827_194739;-0.733;5.602;6.859;0.171;-0.016;-0.033;
20200827_194739;1.516;4.104;4.695;0.106;-0.082;-0.172;
20200827_194739;-0.170;3.716;10.137;-0.056;-0.085;-0.460;
20200827_194739;-0.709;2.852;2.761;-0.073;-0.147;-0.280;
20200827_194739;1.437;5.440;6.488;0.103;-0.089;-0.294;
20200827_194739;-0.675;3.977;2.804;-0.068;-0.125;-0.293;
20200827_194740;0.160;8.684;7.257;0.013;-0.159;-0.277;
20200827_194740;0.553;6.819;12.943;-0.120;-0.127;-0.042;
20200827_194740;-0.761;3.397;1.523;0.258;-0.145;-0.267;
20200827_194740;-1.178;4.990;6.522;0.322;-0.201;-0.057;
20200827_194740;-0.962;4.453;14.186;-0.055;-0.116;-0.064;
20200827_194740;0.536;6.694;8.246;-0.173;-0.155;-0.213;
20200827_194740;0.958;3.072;11.255;-0.159;-0.211;-0.205;
20200827_194740;0.215;3.397;17.025;0.077;-0.057;0.220;
20200827_194740;5.186;4.154;2.351;0.371;0.037;-0.343;
20200827_194741;-1.185;12.457;6.462;0.017;-0.142;-0.126;
20200827_194741;-1.018;0.041;2.014;-0.162;-0.186;-0.248;
20200827_194741;-1.171;8.315;11.696;0.076;-0.203;-0.089;
20200827_194741;-0.601;3.237;9.057;0.059;-0.230;0.323;
20200827_194741;-0.546;5.868;6.864;-0.017;-0.196;0.319;
20200827_194741;4.628;2.452;-1.298;0.143;-0.116;0.071;
20200827_194741;-0.625;2.217;5.928;-0.036;0.037;0.346;
20200827_194741;2.619;13.829;-1.561;0.639;0.109;0.270;
20200827_194741;2.121;8.150;7.815;0.092;0.005;-0.197;
20200827_194741;-2.009;3.388;2.512;0.004;0.160;0.357;
20200827_194742;-0.309;4.894;9.062;0.037;0.141;0.170;
20200827_194742;1.226;3.203;9.354;-0.088;-0.068;-0.464;
20200827_194742;-0.532;4.365;6.926;0.030;-0.084;-0.304;
20200827_194742;-2.981;6.129;5.966;0.168;-0.014;0.351;
20200827_194742;1.525;5.713;6.943;-0.111;0.034;0.293;
20200827_194742;0.474;3.539;12.392;-0.098;0.016;0.072;
20200827_194742;0.951;6.074;10.985;-0.092;0.083;0.142;
20200827_194742;0.350;3.290;3.687;0.088;0.083;0.200;
20200827_194742;1.219;6.744;7.163;-0.065;0.133;0.396;
20200827_194742;2.274;4.080;7.147;0.012;0.154;-0.008;
20200827_194743;1.192;3.905;9.661;0.001;0.102;-0.220;
20200827_194743;-2.483;4.503;12.929;-0.034;0.016;-0.169;
20200827_194743;0.450;4.764;4.152;0.098;0.050;0.335;
20200827_194743;1.235;8.073;9.445;0.078;0.057;0.067;
20200827_194743;2.308;3.431;8.464;-0.104;0.067;-0.180;
20200827_194743;0.218;4.243;6.670;0.009;0.120;-0.235;
20200827_194743;-1.824;4.573;22.319;0.034;0.207;-0.093;
20200827_194743;-0.177;6.620;8.954;0.146;0.039;-0.116;
20200827_194743;0.927;3.931;8.475;-0.218;-0.047;-0.253;
20200827_194744;-0.498;5.023;10.446;-0.144;-0.079;-0.164;
20200827_194744;0.620;6.167;5.444;-0.032;-0.244;-0.019;
20200827_194744;0.311;9.029;7.637;0.025;-0.145;0.120;
20200827_194744;1.451;2.708;6.316;-0.063;-0.137;-0.106;
20200827_194744;0.613;3.711;11.334;-0.164;0.020;0.339;
20200827_194744;-0.771;4.080;7.848;-0.099;0.117;0.137;
20200827_194744;1.853;6.208;7.920;0.094;-0.022;-0.316;
20200827_194744;0.517;5.365;7.537;0.055;0.050;0.119;
20200827_194744;1.324;1.583;8.751;0.095;-0.002;0.091;
20200827_194745;2.131;2.042;8.183;-0.187;-0.063;-0.035;
20200827_194745;-1.037;5.011;9.713;-0.142;0.034;0.038;
20200827_194745;0.929;5.725;7.065;-0.017;-0.117;0.116;
20200827_194745;-1.544;4.264;7.642;0.227;0.032;0.188;
20200827_194745;1.980;4.216;7.815;0.113;-0.081;0.194;
20200827_194745;0.735;2.461;8.090;-0.023;0.200;0.407;
20200827_194745;2.066;7.027;1.152;0.030;0.108;0.141;
20200827_194745;0.493;5.186;8.387;-0.088;0.064;-0.140;
20200827_194745;-0.558;4.436;11.068;0.115;0.119;0.097;
20200827_194745;0.802;4.015;8.241;0.113;0.115;0.281;
20200827_194746;2.184;5.145;10.094;0.093;0.100;0.029;
20200827_194746;3.924;6.079;7.688;0.054;-0.001;-0.484;
20200827_194746;-0.766;5.993;12.622;-0.174;-0.073;-0.190;
20200827_194746;-1.281;4.755;2.854;0.045;-0.027;0.212;
20200827_194746;-0.895;4.583;10.240;0.148;0.164;0.335;
20200827_194746;-0.299;2.732;9.663;-0.131;0.132;-0.219;
20200827_194746;1.305;6.282;10.362;-0.097;0.033;-0.176;
20200827_194746;-0.697;4.286;6.574;0.218;-0.000;-0.031;
20200827_194746;-0.204;2.765;9.330;0.058;-0.123;-0.178;
20200827_194746;-0.785;6.972;9.175;0.009;-0.079;0.057;
20200827_194747;0.886;4.784;10.724;-0.096;-0.088;0.137;
20200827_194747;1.393;3.824;6.139;-0.025;-0.058;-0.008;
20200827_194747;1.209;4.338;7.661;0.018;-0.032;0.033;
20200827_194747;-1.602;3.369;8.677;0.035;-0.093;0.185;
20200827_194747;0.517;4.925;6.938;0.015;0.034;0.409;
20200827_194747;0.316;2.892;12.148;0.027;0.104;0.324;
20200827_194747;0.196;4.958;5.035;0.091;0.127;0.243;
20200827_194747;1.815;4.556;15.263;-0.008;0.102;-0.283;
20200827_194747;-1.489;2.564;7.537;-0.021;0.033;-0.218;
20200827_194748;-0.266;4.733;11.777;-0.162;0.020;0.320;
20200827_194748;0.567;2.655;9.177;0.030;0.055;-0.051;
20200827_194748;2.332;3.115;14.313;-0.011;-0.099;-0.303;
20200827_194748;-2.064;1.611;3.541;-0.065;0.025;0.117;
20200827_194748;0.622;8.035;5.485;0.029;0.016;0.310;
20200827_194748;0.505;4.515;13.424;0.005;0.036;0.179;
20200827_194748;0.974;6.505;7.602;0.065;0.105;0.156;
20200827_194748;-1.075;1.753;2.689;0.074;0.052;0.030;
20200827_194748;0.740;5.246;12.368;0.167;0.152;0.005;
20200827_194749;-0.079;-0.472;7.678;-0.113;0.056;-0.097;
20200827_194749;1.228;3.996;10.123;0.002;0.049;-0.087;
20200827_194749;-1.475;4.966;3.723;0.097;0.030;-0.007;
20200827_194749;-1.274;6.237;7.633;0.091;0.091;0.258;
20200827_194749;1.666;3.019;15.890;-0.017;0.115;0.037;
20200827_194749;1.798;3.572;6.677;0.117;0.114;-0.019;
20200827_194749;0.421;9.704;11.724;-0.012;0.096;-0.087;
20200827_194749;0.905;4.774;12.723;-0.074;0.087;-0.111;
20200827_194749;0.991;6.460;9.390;0.142;-0.055;-0.232;
20200827_194749;1.642;3.450;11.863;0.027;-0.102;-0.413;
20200827_194750;0.893;6.448;24.512;-0.283;-0.183;-0.059;
20200827_194750;-1.223;4.470;3.448;-0.089;-0.170;0.037;
20200827_194750;-0.366;14.164;2.758;0.310;-0.079;0.465;
20200827_194750;0.433;5.064;9.876;0.092;-0.006;0.497;
20200827_194750;0.936;5.612;12.378;-0.039;0.063;0.430;
20200827_194750;0.809;6.859;5.152;0.053;0.128;0.041;
20200827_194750;0.941;6.031;13.894;-0.093;0.117;0.073;
20200827_194750;1.812;3.984;11.902;-0.061;0.104;0.008;
20200827_194750;0.567;4.245;6.337;-0.068;0.094;-0.048;
20200827_194751;0.929;6.747;6.795;-0.076;-0.025;0.050;
20200827_194751;-0.860;4.171;2.863;0.064;0.170;-0.073;
20200827_194751;2.897;-0.498;7.724;-0.269;-0.008;0.075;
20200827_194751;1.195;5.085;11.088;0.025;0.033;-0.078;
20200827_194751;1.750;2.686;3.934;-0.045;0.105;0.015;
20200827_194751;-1.245;4.398;13.985;-0.153;0.081;-0.187;
20200827_194751;0.223;3.666;5.255;0.107;0.100;0.069;
20200827_194751;0.599;2.528;11.873;0.259;-0.006;-0.204;
20200827_194751;-1.927;6.091;10.046;0.003;0.058;0.013;
20200827_194751;-0.845;1.120;3.704;0.160;0.054;-0.138;
20200827_194752;0.352;5.377;17.978;-0.237;0.057;-0.096;
20200827_194752;-0.991;7.561;-6.450;-0.028;-0.260;-0.214;
20200827_194752;-2.054;9.977;1.932;0.227;-0.083;-0.010;
20200827_194752;0.184;11.191;13.745;-0.155;-0.169;0.328;
20200827_194752;0.225;7.475;10.197;-0.142;0.040;0.048;
20200827_194752;-1.365;6.038;5.337;-0.021;0.008;0.283;
20200827_194752;0.761;6.752;8.801;0.181;0.078;0.382;
20200827_194752;0.788;2.626;12.438;-0.059;0.257;-0.018;
20200827_194752;1.805;-1.987;26.638;-0.171;0.184;-0.496;
20200827_194753;4.427;2.179;17.681;0.110;0.026;-0.901;
20200827_194753;-0.742;18.699;-0.879;0.214;-0.276;-0.698;
20200827_194753;-0.848;5.677;1.585;0.137;-0.137;0.188;
20200827_194753;-0.168;5.698;5.669;0.029;-0.122;-0.009;
20200827_194753;-0.850;4.171;11.365;-0.095;-0.111;0.341;
20200827_194753;-0.247;4.362;10.089;-0.002;-0.087;0.223;
20200827_194753;-0.989;7.159;12.064;0.005;-0.012;0.171;
20200827_194753;2.598;0.943;-0.886;0.440;-0.040;-0.163;
20200827_194753;-0.084;12.333;7.154;-0.494;0.018;0.187;
20200827_194753;0.893;8.643;15.751;0.099;-0.112;0.092;
20200827_194754;-0.239;5.124;6.567;-0.160;-0.148;0.075;
20200827_194754;0.520;-0.124;5.930;-0.072;0.131;0.368;
20200827_194754;0.364;6.227;7.362;0.143;0.076;0.125;
20200827_194754;0.546;4.618;10.032;0.108;0.195;0.073;
20200827_194754;0.034;5.346;8.782;-0.114;0.080;-0.152;
20200827_194754;-0.110;9.105;12.191;-0.176;0.082;0.046;
20200827_194754;-1.300;1.372;10.436;-0.124;0.120;0.230;
20200827_194754;3.115;3.852;4.970;0.033;0.251;-0.003;
20200827_194754;2.816;4.810;6.586;0.220;0.068;-0.651;
20200827_194755;1.556;2.763;0.876;0.038;0.117;-0.463;
20200827_194755;-0.409;3.299;9.057;-0.002;0.006;-0.371;
20200827_194755;-2.550;1.523;-0.220;-0.094;-0.226;-0.174;
20200827_194755;-2.049;2.447;11.499;0.100;-0.126;0.104;
20200827_194755;0.081;6.347;12.553;-0.112;-0.208;0.092;
20200827_194755;-1.003;3.539;5.732;-0.068;-0.094;0.332;
20200827_194755;-2.124;5.327;8.298;0.021;-0.048;0.339;
20200827_194755;-0.261;5.928;6.357;0.173;0.035;0.423;
20200827_194755;0.347;4.307;18.404;-0.034;-0.165;-0.193;
20200827_194755;-1.324;1.760;8.933;0.038;-0.015;0.299;
20200827_194756;-0.239;4.123;10.297;-0.001;-0.013;0.321;
20200827_194756;-0.338;2.468;4.980;0.033;0.329;0.489;
20200827_194756;0.888;2.452;7.781;0.060;0.454;-0.232;
20200827_194756;2.164;6.225;6.948;-0.080;0.033;-1.258;
20200827_194756;-0.500;4.278;12.258;-0.022;-0.154;-0.521;
20200827_194756;-2.370;5.148;6.507;0.064;-0.040;0.317;
20200827_194756;0.263;4.709;6.098;-0.016;-0.013;0.392;
20200827_194756;5.626;9.759;-9.402;-0.264;0.037;-0.341;
20200827_194756;1.046;6.261;12.807;0.088;0.022;-0.136;
20200827_194757;0.079;7.884;9.668;-0.085;0.153;-0.682;
20200827_194757;-3.146;4.755;12.950;0.075;-0.114;0.359;
20200827_194757;-3.314;7.365;16.606;-0.043;0.098;0.025;
20200827_194757;2.543;7.209;-6.002;0.165;0.091;0.023;
20200827_194757;3.249;5.320;19.008;-0.150;-0.080;-0.327;
20200827_194757;-4.563;3.141;21.816;-0.079;-0.094;0.057;
20200827_194757;0.069;5.069;7.135;0.171;-0.240;0.398;
20200827_194757;-1.068;2.334;7.728;0.109;-0.029;0.650;
20200827_194757;0.347;7.240;23.621;-0.022;0.038;0.264;
20200827_194757;1.678;3.828;3.869;-0.031;0.058;0.254;
20200827_194758;1.561;5.097;9.591;-0.150;0.103;0.070;
20200827_194758;-2.061;4.920;8.531;0.021;0.243;-0.175;
20200827_194758;1.322;10.058;7.027;-0.116;0.131;-0.098;
20200827_194758;-1.322;6.543;4.836;0.102;0.010;-0.101;
20200827_194758;0.534;1.966;12.675;0.077;0.147;0.237;
20200827_194758;1.312;7.300;7.609;0.069;0.024;-0.324;
20200827_194758;3.531;0.558;20.569;-0.115;-0.055;-0.223;
20200827_194758;0.852;7.949;18.517;-0.117;-0.120;-0.264;
20200827_194758;-1.188;3.773;5.428;-0.084;-0.031;0.155;
20200827_194759;1.506;0.192;8.904;-0.482;-0.089;0.086;
20200827_194759;-0.622;2.641;0.237;0.091;0.013;0.027;
20200827_194759;1.504;6.735;12.577;0.013;0.046;0.182;
20200827_194759;0.637;4.662;6.610;-0.048;0.082;-0.110;
20200827_194759;-1.437;6.646;4.427;-0.020;-0.100;-0.052;
20200827_194759;-1.302;0.369;0.268;0.001;0.089;0.130;
20200827_194759;2.277;3.012;5.957;0.070;0.029;-0.007;
20200827_194759;1.621;6.476;7.286;-0.002;0.020;-0.108;
20200827_194759;0.615;3.194;3.026;-0.037;-0.002;-0.049;
20200827_194800;1.176;2.897;8.871;-0.168;0.010;0.025;
20200827_194800;-0.057;5.440;0.558;0.068;0.023;0.071;
20200827_194800;1.508;6.120;10.077;-0.038;0.088;0.124;
20200827_194800;0.984;2.219;-0.079;0.078;0.176;-0.132;
20200827_194800;1.671;6.462;2.717;0.005;0.022;-0.317;
20200827_194800;0.498;3.677;6.756;-0.143;-0.066;-0.194;
20200827_194800;1.183;5.119;8.068;0.061;-0.118;-0.130;
20200827_194800;-1.657;5.796;10.494;-0.010;-0.009;0.119;
20200827_194800;0.778;3.024;6.795;-0.111;-0.072;0.044;
20200827_194800;0.019;5.646;5.775;0.151;-0.140;0.051;
20200827_194801;-0.895;5.631;15.036;-0.069;-0.262;0.046;
20200827_194801;0.074;1.161;4.338;-0.103;0.040;0.488;
20200827_194801;1.046;6.800;7.578;-0.020;0.039;0.106;
20200827_194801;0.261;0.773;4.250;-0.087;0.122;0.002;
20200827_194801;-0.029;4.422;12.646;0.029;0.081;0.073;
20200827_194801;0.584;7.398;12.584;-0.096;0.073;-0.010;
20200827_194801;3.838;7.044;11.313;0.168;-0.023;-0.224;
20200827_194801;-0.254;5.339;0.417;0.134;-0.024;-0.207;
20200827_194801;-1.602;4.535;11.425;-0.013;-0.132;0.091;
20200827_194802;-0.148;5.600;5.387;-0.089;-0.118;-0.029;
20200827_194802;0.572;-0.093;1.010;0.073;-0.108;-0.128;
20200827_194802;-0.158;4.444;10.951;-0.050;-0.032;0.185;
20200827_194802;1.199;3.021;9.673;-0.098;-0.112;0.309;
20200827_194802;0.407;5.528;8.543;-0.008;0.073;0.304;
20200827_194802;2.298;8.705;6.179;-0.104;-0.116;0.221;
20200827_194802;1.391;6.012;2.552;0.128;0.036;0.124;
20200827_194802;0.294;7.092;7.389;-0.044;0.029;0.315;
20200827_194802;-0.242;6.464;-4.515;0.133;-0.015;0.272;
20200827_194802;-0.804;9.146;13.604;-0.032;0.008;0.133;
20200827_194803;-0.441;2.873;8.660;-0.210;0.010;0.332;
20200827_194803;0.783;5.507;12.371;-0.109;0.074;0.180;
20200827_194803;0.211;3.582;3.610;0.175;0.122;0.218;
20200827_194803;2.830;6.754;6.024;0.182;0.074;0.399;
20200827_194803;-1.046;6.407;5.195;0.124;0.274;0.279;
20200827_194803;0.101;5.136;1.829;-0.014;0.187;0.431;
20200827_194803;-1.300;5.581;7.901;-0.078;0.364;0.347;
20200827_194803;1.039;4.219;10.087;0.184;0.373;0.142;
20200827_194803;2.203;4.652;2.945;0.031;0.243;-0.201;
20200827_194804;2.892;4.429;11.236;-0.011;0.267;-0.149;
20200827_194804;-0.002;6.146;6.929;0.027;0.165;-0.260;
20200827_194804;1.195;6.321;8.162;0.027;0.067;-0.294;
20200827_194804;0.536;1.951;6.907;-0.116;-0.042;-0.280;
20200827_194804;-0.716;8.226;8.040;-0.364;0.010;-0.179;
20200827_194804;1.724;6.833;9.680;-0.219;0.079;-0.367;
20200827_194804;-0.445;14.981;1.551;0.100;0.050;-0.039;
20200827_194804;0.314;6.309;10.769;-0.038;0.049;-0.199;
20200827_194804;-0.843;5.030;9.787;0.280;0.057;-0.356;
20200827_194804;1.350;7.645;4.252;0.349;-0.153;-0.414;
20200827_194805;-0.903;3.912;6.582;0.082;-0.020;-0.236;
20200827_194805;-0.292;6.436;8.770;-0.063;-0.180;-0.439;
20200827_194805;2.272;7.049;10.922;0.039;-0.333;-0.704;
20200827_194805;-2.033;3.740;7.733;0.057;-0.248;-0.366;
20200827_194805;-0.306;4.685;3.062;-0.006;-0.235;0.060;
20200827_194805;-0.776;4.152;7.532;-0.088;-0.059;0.005;
20200827_194805;-0.050;5.387;10.101;0.048;-0.256;-0.275;
20200827_194805;-1.295;5.262;6.218;0.081;-0.180;0.055;
20200827_194805;-1.592;2.217;13.915;-0.016;-0.161;0.310;
20200827_194806;0.491;4.810;8.365;-0.036;-0.131;0.003;
20200827_194806;1.063;0.144;4.700;-0.021;-0.173;-0.019;
20200827_194806;0.883;4.216;11.782;-0.171;-0.118;0.197;
20200827_194806;0.874;6.452;5.885;-0.010;-0.111;0.034;
20200827_194806;0.740;4.403;6.261;0.117;-0.078;-0.081;
20200827_194806;-1.805;4.506;8.973;-0.044;-0.075;0.069;
20200827_194806;0.692;4.118;11.811;0.035;-0.039;0.182;
20200827_194806;-0.175;5.983;12.957;-0.080;0.114;0.441;
20200827_194806;1.906;2.971;8.607;0.031;0.064;0.022;
20200827_194806;-1.267;4.324;3.326;0.204;0.148;-0.022;
20200827_194807;0.831;0.019;11.126;-0.173;-0.074;-0.387;
20200827_194807;-0.067;1.788;2.361;-0.105;0.017;-0.073;
20200827_194807;-1.245;1.777;8.076;-0.176;-0.015;0.209;
20200827_194807;1.714;4.427;7.614;0.010;0.029;0.419;
20200827_194807;1.563;4.614;6.486;0.213;0.008;-0.244;
20200827_194807;0.989;8.001;4.741;0.291;0.052;-0.029;
20200827_194807;0.311;3.093;6.122;0.165;0.189;0.099;
20200827_194807;0.919;3.685;0.194;0.045;0.131;-0.132;
20200827_194807;0.053;4.235;9.416;-0.056;0.116;-0.295;
20200827_194808;1.180;4.125;18.196;-0.285;0.009;-0.309;
20200827_194808;0.297;5.203;14.143;-0.144;-0.011;-0.224;
20200827_194808;0.302;5.217;11.401;0.116;-0.165;-0.272;
20200827_194808;-1.056;4.865;11.090;-0.109;-0.095;-0.169;
20200827_194808;0.247;6.838;6.737;0.139;-0.226;-0.186;
20200827_194808;-0.893;5.437;5.272;0.307;-0.157;-0.136;
20200827_194808;0.984;4.369;7.290;0.042;-0.242;0.164;
20200827_194808;-0.816;4.104;3.012;-0.184;0.043;0.628;
20200827_194808;1.791;7.199;8.720;-0.031;0.030;0.135;
20200827_194808;0.117;5.437;7.369;-0.065;0.101;-0.202;
20200827_194809;0.393;4.147;4.949;0.133;0.114;-0.094;
20200827_194809;0.694;5.705;7.863;-0.032;0.086;-0.206;
20200827_194809;0.788;4.243;8.619;0.080;-0.050;-0.408;
20200827_194809;0.486;6.565;13.211;0.133;-0.109;-0.339;
20200827_194809;-0.536;3.069;5.665;0.035;-0.173;-0.239;
20200827_194809;-0.153;5.499;6.788;-0.071;-0.161;-0.054;
20200827_194809;0.182;4.231;8.935;-0.020;-0.191;0.087;
20200827_194809;-0.393;5.725;7.307;0.172;-0.102;0.040;
20200827_194809;0.517;4.970;11.111;-0.072;-0.044;0.230;
20200827_194810;0.369;5.449;7.309;0.077;0.019;0.089;
20200827_194810;-0.081;4.465;8.001;-0.059;0.022;-0.062;
20200827_194810;0.634;5.521;8.001;-0.103;0.103;0.127;
20200827_194810;-0.321;5.914;4.980;0.098;0.030;-0.230;
20200827_194810;-0.127;5.291;8.959;-0.105;-0.078;-0.255;
20200827_194810;0.373;5.104;10.060;0.002;-0.066;-0.105;
20200827_194810;-1.156;6.050;6.610;0.269;-0.105;-0.048;
20200827_194810;0.895;5.052;10.302;0.031;-0.144;0.157;
20200827_194810;0.651;2.411;8.432;-0.119;0.002;0.134;
20200827_194811;0.283;4.659;7.520;-0.067;0.068;0.011;
20200827_194811;1.755;4.326;2.610;0.087;0.057;-0.224;
20200827_194811;-0.678;4.688;3.065;0.048;0.069;-0.073;
20200827_194811;-0.637;1.867;6.802;0.246;0.062;-0.022;
20200827_194811;0.484;4.537;11.018;0.033;-0.006;-0.131;
20200827_194811;-1.159;2.148;6.642;-0.093;0.013;0.101;
20200827_194811;1.355;5.696;8.744;-0.002;0.038;-0.110;
20200827_194811;0.740;4.618;7.405;0.065;-0.133;-0.304;
20200827_194811;-0.304;5.215;2.234;0.156;-0.100;-0.202;
20200827_194811;0.012;3.730;15.450;-0.027;-0.051;-0.071;
20200827_194812;0.419;2.102;10.764;-0.069;-0.053;0.040;
20200827_194812;0.474;3.675;11.631;-0.017;-0.003;-0.051;
20200827_194812;1.087;5.080;3.488;0.197;-0.020;-0.231;
20200827_194812;-0.917;5.303;11.193;-0.069;-0.026;-0.147;
20200827_194812;0.067;3.558;6.752;-0.138;-0.044;-0.108;
20200827_194812;0.584;4.233;8.868;-0.036;-0.156;-0.153;
20200827_194812;-0.227;4.238;5.784;0.157;-0.154;-0.052;
20200827_194812;-1.077;3.591;9.184;-0.068;-0.076;0.177;
20200827_194812;1.568;6.275;12.835;-0.093;-0.072;0.113;
20200827_194813;1.008;5.109;9.345;-0.069;-0.058;-0.036;
20200827_194813;1.319;6.582;9.606;0.029;-0.034;-0.156;
20200827_194813;-1.257;4.085;4.872;0.078;0.105;0.111;
20200827_194813;0.093;5.514;7.312;0.158;0.112;0.197;
20200827_194813;0.098;3.733;6.086;0.077;0.122;-0.156;
20200827_194813;0.910;3.021;12.919;-0.002;0.136;-0.180;
20200827_194813;0.821;3.733;13.810;-0.014;0.078;-0.444;
20200827_194813;1.530;5.286;8.107;0.031;-0.077;-0.514;
20200827_194813;-0.148;4.834;5.646;0.101;-0.181;-0.703;
20200827_194813;0.675;2.514;14.176;-0.056;-0.378;-0.212;
20200827_194814;-1.700;5.480;5.648;0.032;-0.372;0.129;
20200827_194814;-1.164;4.662;9.969;-0.046;-0.288;0.328;
20200827_194814;-0.436;5.567;5.595;0.067;-0.179;0.471;
20200827_194814;0.038;2.679;11.897;-0.080;0.015;0.293;
20200827_194814;-0.208;5.286;5.157;0.069;0.003;0.118;
20200827_194814;-1.123;5.957;5.550;0.047;0.038;0.243;
20200827_194814;0.800;2.289;9.131;0.054;0.025;0.252;
20200827_194814;2.444;4.841;7.266;0.010;0.078;0.162;
20200827_194814;1.913;4.681;9.098;-0.133;0.073;-0.068;
20200827_194815;1.415;3.725;6.242;0.023;0.022;-0.109;
20200827_194815;-0.541;4.786;8.612;0.150;0.018;-0.194;
20200827_194815;-0.371;4.175;9.467;0.020;-0.019;0.153;
20200827_194815;-0.041;4.583;17.648;-0.062;0.033;0.327;
20200827_194815;-1.267;1.346;7.683;-0.104;0.075;0.295;
20200827_194815;0.871;4.678;1.585;0.082;0.202;0.357;
20200827_194815;1.420;3.809;16.970;0.005;0.173;0.034;
20200827_194815;1.058;1.781;7.015;0.106;0.200;-0.196;
20200827_194815;1.070;3.014;8.095;0.042;-0.001;-0.372;
20200827_194816;-0.924;5.760;7.705;0.015;0.098;-0.191;
20200827_194816;1.142;3.864;10.015;0.037;-0.129;-0.217;
20200827_194816;0.409;4.784;9.182;-0.048;-0.062;-0.062;
20200827_194816;0.946;5.784;4.061;-0.028;-0.090;0.090;
20200827_194816;0.218;4.417;6.610;0.008;0.084;0.122;
20200827_194816;0.328;2.705;5.428;0.194;0.114;-0.045;
20200827_194816;0.991;7.398;11.066;-0.197;0.065;-0.068;
20200827_194816;-2.162;0.821;-5.911;0.003;0.196;-0.203;
20200827_194816;0.419;4.958;11.298;-0.111;0.024;-0.333;
20200827_194816;0.165;-0.651;5.009;-0.049;-0.064;-0.219;
20200827_194817;-0.168;3.010;10.410;-0.038;-0.185;-0.155;
20200827_194817;-0.994;3.433;12.213;-0.064;-0.098;0.014;
20200827_194817;1.726;6.148;6.682;-0.032;-0.172;-0.181;
20200827_194817;0.594;6.311;3.476;0.166;-0.107;-0.048;
20200827_194817;-0.163;3.251;10.580;-0.080;-0.020;0.142;
20200827_194817;1.963;4.226;5.770;0.046;0.018;-0.014;
20200827_194817;0.917;5.217;14.370;-0.082;0.018;-0.320;
20200827_194817;-0.663;4.788;5.085;0.195;-0.069;-0.279;
20200827_194817;-1.537;4.583;9.989;0.069;-0.123;-0.088;
20200827_194818;0.769;2.114;7.386;0.145;-0.162;-0.165;
20200827_194818;-2.502;5.315;8.940;0.042;-0.095;0.148;
20200827_194818;1.480;3.936;7.034;0.068;-0.100;0.198;
20200827_194818;0.443;4.554;7.456;-0.059;-0.081;0.042;
20200827_194818;1.755;3.893;8.109;0.087;-0.109;-0.166;
20200827_194818;-0.383;5.890;15.134;0.090;0.052;0.172;
20200827_194818;0.366;3.385;5.801;-0.052;-0.093;0.005;
20200827_194818;-1.650;4.846;5.947;0.005;0.119;0.201;
20200827_194818;-0.206;8.064;12.364;-0.199;0.062;0.182;
20200827_194819;1.032;5.705;16.458;-0.139;0.045;0.111;
20200827_194819;0.129;3.934;4.398;0.112;0.043;0.048;
20200827_194819;-1.513;3.395;14.341;0.064;0.058;0.068;
20200827_194819;-0.163;5.179;9.924;-0.006;0.009;-0.071;
20200827_194819;1.599;6.302;4.039;0.109;-0.007;-0.097;
20200827_194819;0.450;6.462;9.522;0.134;0.047;0.060;
20200827_194819;0.225;4.135;8.447;-0.089;0.043;0.113;
20200827_194819;0.366;6.393;8.169;0.061;0.134;0.069;
20200827_194819;0.469;4.255;10.611;-0.015;0.094;-0.092;
20200827_194819;-0.086;4.676;6.041;0.022;0.088;-0.078;
20200827_194820;1.166;3.615;4.796;0.099;-0.033;-0.288;
20200827_194820;0.077;5.871;9.160;-0.039;-0.018;-0.288;
20200827_194820;-0.306;3.136;14.356;-0.020;-0.098;-0.063;
20200827_194820;0.584;4.108;9.424;0.011;-0.099;0.011;
20200827_194820;0.558;5.411;7.633;0.068;-0.128;-0.098;
20200827_194820;0.359;3.828;6.565;-0.065;-0.091;-0.106;
20200827_194820;-0.630;2.638;7.721;-0.095;-0.029;0.215;
20200827_194820;-0.397;2.883;12.687;-0.063;0.017;0.210;
20200827_194820;1.056;4.800;6.826;0.102;-0.012;-0.005;
20200827_194820;-1.118;5.353;12.352;0.010;0.027;-0.049;
20200827_194821;0.251;3.982;6.110;-0.070;0.042;0.024;
20200827_194821;0.196;6.632;8.459;0.023;-0.013;0.040;
20200827_194821;1.037;4.192;7.705;0.073;-0.020;0.167;
20200827_194821;-0.136;2.433;10.058;-0.114;0.030;-0.050;
20200827_194821;0.244;4.319;8.569;-0.083;0.029;0.003;
20200827_194821;0.304;4.003;6.926;0.192;0.022;-0.005;
20200827_194821;-0.022;2.241;9.778;0.130;0.034;0.174;
20200827_194821;0.939;3.089;6.962;-0.019;0.092;0.082;
20200827_194821;0.852;6.208;7.259;-0.003;0.070;-0.106;
20200827_194822;0.366;7.738;5.772;0.029;0.107;-0.066;
20200827_194822;0.381;3.148;16.656;-0.127;-0.000;-0.209;
20200827_194822;0.479;6.517;8.016;-0.043;-0.027;-0.100;
20200827_194822;1.039;5.193;3.105;0.061;-0.058;-0.100;
20200827_194822;0.524;4.994;8.550;-0.025;-0.049;-0.056;
20200827_194822;0.249;4.702;1.707;-0.048;-0.088;-0.094;
20200827_194822;2.164;3.800;2.272;0.120;-0.125;-0.087;
20200827_194822;-0.558;2.796;6.886;0.188;-0.068;-0.076;
20200827_194822;0.737;9.972;1.575;-0.309;-0.127;0.160;
20200827_194822;0.637;5.954;9.637;-0.048;0.054;0.207;
20200827_194823;1.013;10.827;-3.038;-0.057;0.067;0.250;
20200827_194823;-0.220;5.334;16.678;0.127;0.138;-0.018;
20200827_194823;-0.180;1.120;9.752;-0.010;0.070;-0.124;
20200827_194823;0.103;3.982;11.449;-0.097;0.034;-0.139;
20200827_194823;1.046;3.610;5.488;-0.142;0.025;-0.158;
20200827_194823;0.962;4.980;4.575;0.082;-0.038;-0.205;
20200827_194823;0.529;7.274;8.681;-0.071;-0.082;-0.315;
20200827_194823;0.074;5.753;5.349;0.076;-0.121;-0.161;
20200827_194823;-0.211;6.304;4.470;0.182;-0.085;0.231;
20200827_194824;-0.251;4.116;6.653;0.034;0.023;0.383;
20200827_194824;1.516;4.772;7.863;-0.223;0.102;0.187;
20200827_194824;1.130;5.863;7.875;-0.144;0.098;-0.157;
20200827_194824;0.249;6.424;3.321;0.062;0.006;-0.341;
20200827_194824;0.235;5.902;8.332;-0.032;-0.071;-0.186;
20200827_194824;0.340;6.184;8.844;-0.020;-0.110;-0.297;
20200827_194824;-2.270;4.147;9.833;0.025;-0.174;-0.061;
20200827_194824;0.503;5.186;9.862;0.076;-0.098;0.303;
20200827_194824;1.298;5.375;7.195;0.027;-0.087;0.162;
20200827_194824;0.517;4.714;6.551;-0.065;0.041;0.108;
20200827_194825;-0.362;4.899;9.033;0.038;0.090;0.051;
20200827_194825;0.591;4.271;14.176;0.111;0.122;0.083;
20200827_194825;0.690;4.195;8.420;-0.010;0.087;-0.113;
20200827_194825;0.314;3.761;7.685;-0.055;0.033;-0.321;
20200827_194825;-0.917;3.941;8.205;-0.098;-0.016;-0.185;
20200827_194825;-0.259;4.032;12.713;-0.057;-0.102;-0.171;
20200827_194825;0.393;5.018;3.055;0.247;-0.113;0.144;
20200827_194825;-0.261;6.024;8.950;0.054;-0.027;0.189;
20200827_194825;0.692;4.843;12.033;-0.185;0.003;0.004;
20200827_194826;1.642;5.337;6.867;0.012;0.011;0.039;
20200827_194826;0.496;4.245;4.348;0.145;0.026;-0.237;
20200827_194826;-0.010;4.669;7.053;0.164;0.040;-0.104;
20200827_194826;0.728;4.424;9.673;-0.003;0.056;-0.050;
20200827_194826;1.140;3.589;7.925;-0.035;-0.010;-0.197;
20200827_194826;-0.867;6.057;7.276;0.087;-0.014;-0.081;
20200827_194826;-1.041;3.836;4.911;0.069;-0.023;-0.024;
20200827_194826;1.829;4.116;8.614;-0.097;-0.030;-0.299;
20200827_194826;0.615;2.421;7.441;-0.050;-0.124;-0.475;
20200827_194826;-0.991;5.207;12.689;-0.072;-0.199;-0.278;
20200827_194827;0.924;3.697;7.230;-0.038;-0.227;-0.042;
20200827_194827;-0.182;3.728;4.911;0.118;-0.069;0.341;
20200827_194827;1.171;4.401;7.934;-0.014;-0.022;0.212;
20200827_194827;0.316;3.610;5.124;-0.048;0.121;0.029;
20200827_194827;2.049;5.418;15.510;-0.144;0.018;-0.162;
20200827_194827;1.573;3.673;13.139;-0.087;-0.027;-0.288;
20200827_194827;-1.702;4.377;5.648;0.061;-0.047;-0.225;
20200827_194827;0.527;4.175;8.373;0.131;-0.163;-0.419;
20200827_194827;-0.807;4.535;9.936;0.028;-0.248;-0.172;
20200827_194828;-1.860;3.802;5.349;0.109;-0.244;0.229;
20200827_194828;0.297;6.227;7.791;0.061;-0.189;0.286;
20200827_194828;0.136;1.446;16.113;-0.251;-0.148;0.310;
20200827_194828;-1.109;3.632;2.210;0.004;-0.020;0.490;
20200827_194828;2.492;5.859;6.560;0.099;0.094;0.324;
20200827_194828;-0.089;3.551;7.293;0.003;0.137;0.029;
20200827_194828;-0.261;4.231;10.566;-0.021;0.104;0.058;
20200827_194828;-0.951;2.921;8.775;-0.139;0.146;0.162;
20200827_194828;1.420;4.925;9.934;-0.007;0.107;0.119;
20200827_194829;0.019;4.441;7.204;0.043;0.164;0.013;
20200827_194829;1.192;4.781;6.747;-0.010;0.086;-0.178;
20200827_194829;1.238;4.420;3.328;0.167;0.135;-0.190;
20200827_194829;0.747;5.437;12.378;-0.114;0.007;-0.167;
20200827_194829;2.145;3.180;9.206;-0.178;-0.088;-0.188;
20200827_194829;-0.457;7.360;7.719;0.006;0.067;0.086;
20200827_194829;1.142;4.175;8.923;-0.159;0.023;0.003;
20200827_194829;0.165;6.735;6.460;0.079;0.154;0.010;
20200827_194829;1.087;5.480;8.212;-0.022;0.020;-0.256;
20200827_194829;0.915;1.283;5.428;-0.033;0.008;-0.185;
20200827_194830;0.721;8.286;17.432;-0.003;-0.029;-0.157;
20200827_194830;-0.093;4.032;5.648;0.025;-0.079;-0.398;
20200827_194830;0.879;8.859;14.739;0.161;-0.219;-0.454;
20200827_194830;-0.299;5.851;8.825;0.132;-0.285;-0.253;
20200827_194830;-0.843;4.338;9.380;0.082;-0.261;0.187;
20200827_194830;-1.504;3.299;3.124;-0.077;-0.102;0.621;
20200827_194830;2.121;6.721;-1.568;0.412;-0.083;0.922;
20200827_194830;0.326;3.824;5.715;0.136;0.251;0.495;
20200827_194830;1.140;-0.881;6.555;-0.203;0.253;0.032;
20200827_194831;1.326;3.402;10.367;-0.078;0.189;-0.377;
20200827_194831;-0.745;6.409;11.957;-0.023;-0.023;-0.219;
20200827_194831;2.241;2.696;2.260;0.009;-0.066;-0.212;
20200827_194831;-2.784;7.010;11.090;0.002;-0.065;-0.096;
20200827_194831;1.247;5.248;6.237;-0.013;-0.124;0.267;
20200827_194831;-1.214;5.346;13.625;-0.109;0.004;0.166;
20200827_194831;1.324;4.161;7.681;0.063;-0.047;0.146;
20200827_194831;-0.074;4.566;7.001;0.015;0.108;0.237;
20200827_194831;0.443;2.995;9.661;-0.079;0.076;0.198;
20200827_194832;0.311;5.741;4.831;0.183;0.136;0.132;
20200827_194832;-0.057;5.839;10.944;0.110;0.088;-0.008;
20200827_194832;0.663;3.639;5.351;-0.021;0.059;-0.029;
20200827_194832;0.596;3.709;11.202;-0.077;0.103;0.098;
20200827_194832;0.986;5.679;8.689;-0.070;0.017;-0.008;
20200827_194832;-0.333;2.598;9.821;-0.005;0.058;0.003;
20200827_194832;1.516;4.468;6.938;-0.015;-0.013;-0.162;
20200827_194832;1.389;5.957;10.750;-0.072;-0.000;-0.287;
20200827_194832;1.001;4.130;7.226;-0.015;-0.063;-0.242;
20200827_194832;-0.939;4.887;8.389;0.015;-0.060;-0.060;
20200827_194833;0.060;4.544;8.159;0.058;-0.085;0.102;
20200827_194833;0.625;4.334;7.626;0.051;0.003;0.172;
20200827_194833;-0.206;2.871;1.829;-0.129;-0.007;0.144;
20200827_194833;-0.084;2.964;5.643;-0.227;0.035;0.400;
20200827_194833;1.659;4.314;7.506;-0.051;0.076;0.154;
20200827_194833;0.903;4.350;8.191;0.077;0.053;-0.062;
20200827_194833;0.730;3.639;7.001;0.185;0.013;-0.175;
20200827_194833;0.328;6.495;7.805;0.005;-0.011;-0.108;
20200827_194833;1.623;6.199;3.405;0.002;-0.104;-0.223;
20200827_194834;-0.457;3.989;4.185;0.204;0.006;0.066;
20200827_194834;-1.872;2.799;8.859;-0.025;-0.012;0.309;
20200827_194834;0.010;2.811;10.848;-0.008;0.056;0.288;
20200827_194834;0.113;3.488;12.297;-0.069;0.047;0.055;
20200827_194834;-0.469;6.723;8.576;0.117;0.022;0.104;
20200827_194834;0.230;2.385;9.519;-0.031;0.014;0.209;
20200827_194834;0.694;3.809;5.918;-0.007;0.047;0.102;
20200827_194834;1.762;3.038;8.916;0.008;-0.036;-0.019;
20200827_194834;-0.369;0.769;13.137;-0.170;0.030;0.069;
20200827_194834;2.365;5.389;6.610;0.018;-0.072;0.021;
20200827_194835;0.280;5.502;6.704;0.099;0.033;0.124;
20200827_194835;0.814;4.130;6.292;0.085;0.008;0.023;
20200827_194835;0.373;3.156;10.173;-0.059;0.125;0.253;
20200827_194835;-1.616;4.551;4.867;0.135;0.272;0.262;
20200827_194835;2.825;8.897;6.752;0.196;0.207;0.139;
20200827_194835;1.346;3.077;15.768;-0.203;0.241;-0.193;
20200827_194835;0.907;4.362;2.816;0.172;-0.029;-0.577;
20200827_194835;-1.791;6.275;8.914;0.159;-0.055;-0.220;
20200827_194835;0.991;2.646;10.630;-0.227;-0.122;-0.064;
20200827_194836;-1.437;4.211;5.231;-0.184;-0.090;0.166;
20200827_194836;1.269;7.369;10.791;-0.025;-0.024;0.018;
20200827_194836;0.045;0.086;7.870;0.021;0.007;-0.058;
20200827_194836;0.747;4.834;5.260;-0.062;0.011;0.262;
20200827_194836;0.421;4.281;10.568;-0.096;0.111;0.211;
20200827_194836;1.228;4.798;7.386;0.060;0.074;-0.144;
20200827_194836;0.704;6.711;6.170;-0.034;0.009;-0.176;
20200827_194836;-1.544;5.708;7.851;0.020;0.022;0.092;
20200827_194836;0.354;4.683;7.745;-0.038;-0.056;-0.079;
20200827_194837;-0.855;3.575;9.026;-0.033;-0.050;0.107;
20200827_194837;0.936;3.395;5.339;0.166;0.027;0.362;
20200827_194837;0.366;6.364;7.199;0.028;0.091;0.250;
20200827_194837;0.611;4.125;8.059;0.052;0.104;-0.139;
20200827_194837;-0.692;4.041;8.265;0.073;0.051;-0.077;
20200827_194837;0.093;4.901;10.625;-0.111;0.099;0.124;
20200827_194837;1.097;3.819;6.309;0.133;0.085;0.147;
20200827_194837;0.283;6.208;8.296;0.096;0.140;0.202;
20200827_194837;0.338;3.476;8.317;-0.105;0.113;-0.076;
20200827_194837;1.314;4.166;9.900;-0.092;-0.008;-0.082;
20200827_194838;-0.225;4.515;10.563;-0.038;0.041;-0.066;
20200827_194838;0.402;3.385;9.474;-0.066;0.035;0.189;
20200827_194838;1.010;5.205;8.531;-0.112;-0.020;0.003;
20200827_194838;0.819;7.487;6.000;0.116;-0.029;-0.147;
20200827_194838;0.287;4.477;14.155;0.033;0.029;0.209;
20200827_194838;0.800;5.722;12.110;0.004;0.051;0.095;
20200827_194838;1.245;5.001;11.562;0.003;0.042;0.060;
20200827_194838;0.280;4.389;7.384;0.012;0.143;0.089;
20200827_194838;1.616;4.870;7.479;-0.035;0.091;-0.060;
20200827_194839;0.742;6.108;8.274;0.028;0.039;-0.190;
20200827_194839;1.293;4.183;7.025;0.080;-0.125;-0.474;
20200827_194839;-0.366;4.815;2.531;0.082;-0.153;-0.078;
20200827_194839;-0.273;3.287;9.024;0.018;-0.067;0.433;
20200827_194839;0.927;6.711;6.773;0.008;-0.000;0.197;
20200827_194839;1.609;4.070;8.533;0.037;0.009;-0.111;
20200827_194839;0.936;5.318;11.873;-0.036;-0.003;-0.114;
20200827_194839;-0.266;3.481;3.819;0.149;0.024;0.006;
20200827_194839;0.067;3.651;11.332;0.082;0.031;0.136;
20200827_194839;-0.929;5.025;6.036;-0.105;-0.030;-0.014;
20200827_194840;-0.742;3.136;11.401;-0.059;0.052;0.216;
20200827_194840;1.585;4.096;9.529;0.001;0.019;-0.095;
20200827_194840;-1.592;4.281;5.373;0.065;-0.005;-0.064;
20200827_194840;1.709;4.585;11.138;-0.077;-0.161;-0.126;
20200827_194840;0.658;6.826;10.470;0.018;-0.121;-0.088;
20200827_194840;-0.005;3.419;7.685;0.049;-0.092;0.176;
20200827_194840;1.338;5.066;10.008;0.031;-0.066;0.431;
20200827_194840;0.469;4.922;4.764;0.050;0.141;0.379;
20200827_194840;1.152;6.728;9.481;-0.029;0.068;0.315;
20200827_194841;0.570;4.535;6.591;0.235;0.222;0.323;
20200827_194841;0.800;2.782;11.423;-0.044;0.094;-0.011;
20200827_194841;0.124;4.618;12.965;0.061;0.186;-0.121;
20200827_194841;0.807;6.026;5.569;-0.044;-0.050;-0.322;
20200827_194841;0.079;9.673;5.595;-0.003;-0.033;0.067;
20200827_194841;1.403;3.718;8.052;0.003;0.033;0.083;
20200827_194841;-1.851;3.819;10.434;-0.080;0.206;0.299;
20200827_194841;2.270;5.784;5.112;0.099;0.076;-0.002;
20200827_194841;0.713;3.613;16.803;-0.167;0.205;0.078;
20200827_194842;0.424;4.779;6.266;0.020;0.131;-0.125;
20200827_194842;0.527;5.171;8.361;0.122;0.031;-0.144;
20200827_194842;0.232;1.834;6.938;0.005;-0.049;-0.066;
20200827_194842;-0.460;7.305;8.842;0.044;0.023;0.149;
20200827_194842;3.721;2.203;6.507;0.026;-0.017;0.158;
20200827_194842;2.066;5.662;8.629;0.006;-0.109;-0.521;
20200827_194842;-0.074;2.071;6.574;-0.115;-0.050;0.198;
20200827_194842;-0.936;2.191;9.562;-0.066;-0.015;0.409;
20200827_194842;1.709;6.251;9.136;0.104;-0.001;0.317;
20200827_194842;-1.097;5.025;11.528;-0.094;0.180;0.144;
20200827_194843;0.575;5.725;10.898;-0.054;0.128;0.017;
20200827_194843;-0.223;4.262;2.854;0.087;0.132;0.065;
20200827_194843;1.891;3.907;11.760;0.035;0.049;-0.149;
20200827_194843;-0.409;4.681;8.468;0.005;0.020;-0.014;
20200827_194843;1.590;3.591;6.785;-0.027;-0.000;-0.276;
20200827_194843;0.582;5.567;9.462;-0.064;-0.010;-0.202;
20200827_194843;-0.876;4.312;4.168;0.123;0.082;0.130;
20200827_194843;1.197;4.764;4.099;0.157;0.013;0.030;
20200827_194843;-0.297;3.764;10.534;-0.006;-0.057;-0.324;
20200827_194844;-2.698;-1.049;-7.884;-0.096;0.234;-0.715;
20200827_194844;0.057;11.973;12.333;0.270;-0.041;0.069;
20200827_194844;0.225;6.223;6.407;-0.092;-0.123;0.007;
20200827_194844;0.642;1.906;5.212;-0.098;-0.113;0.157;
20200827_194844;-0.407;4.046;14.289;-0.121;-0.062;-0.014;
20200827_194844;2.140;2.452;13.848;-0.055;0.011;-0.071;
20200827_194844;1.697;5.827;9.560;0.085;-0.022;-0.031;
20200827_194844;0.055;5.804;8.162;-0.034;-0.053;-0.177;
20200827_194844;1.281;5.468;10.760;-0.191;-0.049;0.066;
20200827_194844;-0.642;5.171;5.777;-0.055;-0.080;-0.098;
20200827_194845;-1.714;4.913;8.835;-0.016;-0.009;0.415;
20200827_194845;1.561;2.784;9.052;0.046;-0.019;0.248;
20200827_194845;0.256;4.140;6.455;0.052;0.149;0.178;
20200827_194845;2.411;0.366;9.560;-0.175;0.079;-0.171;
20200827_194845;1.053;6.716;5.595;0.038;-0.046;-0.475;
20200827_194845;-0.251;3.668;9.155;-0.032;-0.023;-0.035;
20200827_194845;-0.721;6.505;5.308;0.039;-0.060;0.114;
20200827_194845;0.903;5.921;6.270;0.108;0.066;0.280;
20200827_194845;0.587;2.037;5.428;0.004;0.075;0.081;
20200827_194846;-0.115;4.745;13.429;-0.217;0.122;0.082;
20200827_194846;-0.460;3.505;6.630;0.033;-0.046;-0.295;
20200827_194846;-0.690;6.132;14.959;-0.153;-0.044;0.072;
20200827_194846;0.522;0.876;5.205;-0.030;-0.010;0.101;
20200827_194846;1.154;5.387;-1.250;0.067;0.007;0.022;
20200827_194846;0.565;4.707;22.886;-0.128;0.025;0.102;
20200827_194846;0.553;2.602;0.883;-0.001;0.003;0.239;
20200827_194846;3.591;12.565;8.890;0.169;0.133;0.044;
20200827_194846;-0.464;1.894;2.430;0.098;0.058;-0.364;
20200827_194846;-0.273;7.784;8.887;0.041;-0.000;0.021;
20200827_194847;1.451;6.879;9.086;0.028;-0.067;0.034;
20200827_194847;1.690;2.377;8.593;0.048;-0.026;0.031;
20200827_194847;-0.943;6.182;11.734;0.033;-0.088;-0.148;
20200827_194847;-1.013;6.153;9.491;0.094;-0.046;0.122;
20200827_194847;1.109;5.744;6.512;-0.116;-0.141;-0.015;
20200827_194847;-1.547;4.154;9.850;-0.005;0.073;0.426;
20200827_194847;2.732;5.471;8.289;0.034;0.165;0.136;
20200827_194847;0.634;3.215;2.909;0.052;0.153;-0.061;
20200827_194847;0.074;5.016;12.155;-0.142;0.088;-0.029;
20200827_194848;-0.594;3.395;14.545;-0.121;0.069;0.018;
20200827_194848;-1.257;7.357;5.365;-0.005;-0.003;-0.122;
20200827_194848;-1.003;4.815;10.235;0.182;0.086;0.100;
20200827_194848;2.476;4.841;5.363;0.042;-0.025;-0.029;
20200827_194848;0.139;3.100;2.437;0.063;0.053;-0.193;
20200827_194848;-0.800;3.620;7.228;-0.133;0.043;-0.027;
20200827_194848;1.142;4.539;6.886;-0.046;0.032;-0.093;
20200827_194848;-0.072;7.293;4.791;0.069;0.017;-0.108;
20200827_194848;-1.437;4.293;5.145;0.106;-0.009;-0.042;
20200827_194849;-1.018;4.863;5.859;0.025;0.016;0.080;
20200827_194849;1.082;4.911;11.267;0.011;-0.071;-0.009;
20200827_194849;0.105;4.934;8.274;0.062;-0.027;-0.025;
20200827_194849;1.621;5.748;6.835;-0.121;-0.074;-0.058;
20200827_194849;0.766;5.016;6.752;-0.025;-0.083;-0.117;
20200827_194849;-0.014;4.288;8.997;-0.004;-0.088;0.203;
20200827_194849;0.536;4.788;7.587;0.005;-0.056;0.186;
20200827_194849;-0.967;5.270;3.383;0.086;0.098;0.206;
20200827_194849;0.338;6.472;11.475;-0.285;0.006;0.092;
20200827_194850;0.972;5.148;13.882;0.015;0.152;0.243;
20200827_194850;0.567;3.359;8.286;0.122;0.043;-0.082;
20200827_194850;-0.680;6.057;7.415;0.202;0.041;-0.040;
20200827_194850;0.991;3.496;12.036;-0.069;-0.014;-0.155;
20200827_194850;1.865;3.924;7.532;0.030;-0.024;-0.044;
20200827_194850;0.182;5.267;5.756;-0.028;-0.042;0.026;
20200827_194850;-1.362;2.567;16.233;-0.210;0.016;0.101;
20200827_194850;1.439;3.960;5.432;0.107;0.070;0.132;
20200827_194850;-0.965;2.926;7.767;-0.019;0.176;0.117;
20200827_194850;1.034;4.099;5.962;0.015;0.140;0.068;
20200827_194851;1.125;3.697;10.003;0.053;0.080;-0.285;
20200827_194851;1.118;5.325;14.834;-0.027;-0.043;-0.257;
20200827_194851;0.213;5.851;8.461;0.100;-0.111;-0.120;
20200827_194851;0.201;4.458;6.929;0.189;-0.022;0.081;
20200827_194851;-0.448;6.120;14.102;-0.137;-0.068;0.136;
20200827_194851;0.879;2.397;8.265;-0.008;-0.005;0.144;
20200827_194851;0.690;1.041;14.372;0.003;-0.024;-0.219;
20200827_194851;-1.678;8.222;10.262;-0.157;0.130;0.307;
20200827_194851;-0.740;4.503;1.686;0.057;0.235;0.345;
20200827_194852;1.851;4.736;6.318;-0.050;0.106;-0.269;
20200827_194852;-0.539;7.939;9.843;0.037;0.050;-0.301;
20200827_194852;-2.315;5.753;5.452;0.140;-0.158;-0.509;
20200827_194852;-1.681;6.273;9.349;-0.072;-0.056;0.146;
20200827_194852;1.211;5.782;8.873;-0.032;-0.127;0.145;
20200827_194852;-1.516;4.628;11.310;0.097;0.053;0.080;
20200827_194852;1.267;5.416;7.542;0.048;0.031;0.200;
20200827_194852;1.010;6.649;9.888;-0.020;0.118;0.075;
20200827_194852;1.556;4.216;4.369;0.043;0.177;-0.061;
20200827_194852;-2.744;5.092;11.662;-0.024;0.059;-0.218;
20200827_194853;1.477;4.793;12.747;-0.007;0.034;-0.143;
20200827_194853;-0.864;4.252;4.017;-0.048;-0.014;-0.054;
20200827_194853;1.585;4.235;4.403;0.061;-0.019;0.006;
20200827_194853;-0.079;5.861;8.938;-0.069;-0.011;-0.197;
20200827_194853;2.490;2.765;6.888;-0.040;-0.065;0.041;
20200827_194853;0.098;7.163;5.274;0.064;-0.133;-0.106;
20200827_194853;0.448;5.763;13.479;0.033;-0.062;0.189;
20200827_194853;-0.761;0.917;6.163;0.078;0.008;0.107;
20200827_194853;1.049;7.290;7.717;-0.096;-0.015;0.195;
20200827_194854;-0.891;4.705;18.687;-0.084;0.086;0.093;
20200827_194854;0.180;4.061;2.011;0.136;-0.044;-0.059;
20200827_194854;-0.541;5.090;12.864;0.208;0.014;-0.095;
20200827_194854;0.029;2.088;6.476;-0.021;-0.016;0.113;
20200827_194854;1.532;5.763;2.164;0.087;-0.076;-0.061;
20200827_194854;0.946;8.231;15.751;-0.012;-0.087;0.057;
20200827_194854;-0.740;7.039;9.309;0.071;0.043;0.180;
20200827_194854;-0.455;2.612;5.272;-0.040;0.100;0.167;
20200827_194854;-0.745;3.876;10.788;-0.139;0.210;0.207;
20200827_194854;0.953;3.790;5.880;-0.024;0.188;-0.064;
20200827_194855;1.305;7.240;8.724;-0.011;0.129;-0.218;
20200827_194855;2.231;3.689;11.583;-0.031;-0.101;-0.604;
20200827_194855;-1.233;8.226;10.455;-0.032;-0.161;-0.253;
20200827_194855;2.119;1.800;4.563;0.108;-0.209;0.036;
20200827_194855;0.256;6.433;11.966;-0.125;-0.198;0.048;
20200827_194855;0.220;6.287;9.290;0.021;0.031;0.383;
20200827_194855;0.704;3.158;11.140;-0.093;0.095;0.191;
20200827_194855;1.927;5.459;8.892;-0.020;0.130;-0.040;
20200827_194855;0.026;2.875;5.217;0.039;0.216;-0.389;
20200827_194856;0.254;5.365;7.465;0.110;0.070;-0.362;
20200827_194856;-1.664;0.611;8.308;-0.111;-0.081;-0.059;
20200827_194856;-0.788;4.429;4.113;0.106;-0.088;-0.035;
20200827_194856;-0.022;5.643;10.099;-0.017;-0.112;-0.175;
20200827_194856;1.080;5.102;7.697;0.068;-0.085;-0.077;
20200827_194856;2.564;4.415;2.756;0.041;-0.156;-0.076;
20200827_194856;0.867;2.437;5.605;0.052;-0.099;-0.109;
20200827_194856;-1.530;3.622;9.256;0.115;-0.115;0.201;
20200827_194856;2.093;8.499;3.172;0.171;-0.006;0.411;
20200827_194856;0.517;6.457;11.751;-0.014;0.032;0.096;
20200827_194857;-0.218;5.375;3.790;0.035;0.085;0.067;
20200827_194857;0.723;2.143;3.352;0.003;0.099;-0.074;
20200827_194857;-0.417;6.632;8.672;0.048;0.020;-0.243;
20200827_194857;-0.290;5.600;8.641;0.098;-0.071;-0.033;
20200827_194857;0.318;3.888;5.315;0.172;-0.093;0.138;
20200827_194857;0.532;5.370;7.257;0.151;-0.078;-0.125;
20200827_194857;-0.242;5.399;4.621;-0.029;-0.041;0.128;
20200827_194857;-0.951;4.791;9.254;-0.113;-0.029;0.186;
20200827_194857;1.120;5.602;2.823;0.122;0.068;0.353;
20200827_194858;-1.384;4.310;15.792;-0.035;0.161;0.210;
20200827_194858;-0.158;4.164;7.542;0.033;0.201;-0.107;
20200827_194858;0.275;2.116;10.458;-0.031;-0.008;-0.342;
20200827_194858;-1.480;5.124;9.816;-0.025;0.098;-0.060;
20200827_194858;0.074;6.668;7.503;0.036;0.032;0.087;
20200827_194858;2.301;3.527;2.380;-0.116;-0.033;-0.165;
20200827_194858;-0.170;4.681;11.368;0.191;-0.084;-0.408;
20200827_194858;-0.960;4.147;8.578;0.233;-0.162;-0.189;
20200827_194858;-0.297;0.474;10.429;-0.037;-0.095;0.411;
20200827_194859;0.000;3.630;4.106;0.101;0.067;0.452;
20200827_194859;-0.443;3.642;9.869;0.037;0.206;0.300;
20200827_194859;1.939;6.907;6.433;0.069;0.104;-0.285;
