Timestamp;Accel_x;Accel_y;Accel_z;Gyro_x;Gyro_y;Gyro_z;
20200831_155114;0,390;4,987;8,186;0,012;-0,005;-0,023;
20200831_155114;0,467;4,920;8,274;0,001;0,009;0,005;
20200831_155114;0,534;4,942;8,282;0,001;0,002;-0,022;
20200831_155114;0,491;4,961;8,265;0,002;0,011;-0,023;
20200831_155115;0,460;4,990;8,236;0,002;0,019;-0,021;
20200831_155115;0,452;4,975;8,270;0,003;0,025;-0,021;
20200831_155115;0,146;4,927;8,236;0,003;0,036;-0,004;
20200831_155115;0,280;4,922;8,253;0,001;0,028;0,005;
20200831_155115;0,630;4,985;8,217;0,005;0,013;-0,070;
20200831_155115;-0,144;5,325;8,049;0,006;0,042;-0,065;
20200831_155115;-0,630;5,804;7,661;0,001;-0,026;-0,197;
20200831_155115;-0,491;5,612;7,834;0,014;-0,123;-0,266;
20200831_155115;-0,201;5,452;8,011;0,015;-0,129;-0,147;
20200831_155116;0,211;5,420;7,872;0,009;-0,105;-0,039;
20200831_155116;0,630;5,320;7,975;0,003;-0,083;0,007;
20200831_155116;0,596;5,356;8,155;0,007;-0,063;-0,027;
20200831_155116;0,259;5,365;7,702;0,004;-0,048;-0,049;
20200831_155116;0,215;5,409;8,253;-0,002;-0,066;-0,088;
20200831_155116;0,836;5,411;7,997;0,014;-0,105;-0,190;
20200831_155116;0,927;5,478;8,049;0,017;-0,120;-0,369;
20200831_155116;0,115;5,868;7,882;0,021;-0,132;-0,460;
20200831_155116;0,151;5,873;7,661;0,022;-0,129;-0,320;
20200831_155116;0,065;5,839;7,997;0,007;-0,093;-0,265;
20200831_155117;-0,194;5,906;6,895;0,007;-0,087;-0,203;
20200831_155117;0,354;5,538;7,803;0,031;-0,105;-0,278;
20200831_155117;-0,299;5,080;7,537;0,006;-0,142;-0,260;
20200831_155117;0,237;6,246;8,181;0,029;-0,140;-0,224;
20200831_155117;-1,030;5,351;7,173;0,023;-0,158;-0,178;
20200831_155117;0,697;5,186;8,643;0,004;-0,169;0,008;
20200831_155117;0,321;5,648;8,356;0,001;-0,138;-0,004;
20200831_155117;1,034;5,198;8,030;-0,003;-0,083;0,028;
20200831_155117;0,256;4,695;8,653;0,035;-0,059;-0,102;
20200831_155118;1,530;5,119;8,511;-0,001;-0,094;-0,172;
20200831_155118;0,625;4,046;7,788;0,045;-0,074;-0,316;
20200831_155118;0,194;6,251;8,317;0,036;-0,115;-0,425;
20200831_155118;0,462;4,520;8,459;0,030;-0,162;-0,308;
20200831_155118;0,795;5,590;8,219;-0,020;-0,139;-0,425;
20200831_155118;1,563;5,255;8,684;0,031;-0,051;-0,251;
20200831_155118;-0,287;4,894;7,582;-0,125;-0,082;-0,342;
20200831_155118;1,372;5,308;8,552;-0,067;0,059;-0,194;
20200831_155118;-1,279;7,195;6,270;-0,091;0,245;0,143;
20200831_155118;-2,160;7,415;6,342;-0,068;0,421;0,600;
20200831_155119;0,206;6,110;9,400;-0,115;0,396;-0,056;
20200831_155119;-0,017;6,076;6,005;-0,010;0,227;-0,551;
20200831_155119;-1,003;3,680;9,948;-0,043;0,212;-0,493;
20200831_155119;-2,078;2,696;9,606;-0,008;0,054;-0,992;
20200831_155119;-2,974;4,688;7,977;0,105;-0,347;-1,693;
20200831_155119;-2,397;6,110;5,248;0,265;-0,130;-0,994;
20200831_155119;-2,184;4,135;6,764;0,160;-0,134;-0,628;
20200831_155119;-1,645;3,062;8,135;0,348;-0,130;-0,380;
20200831_155119;-2,545;4,939;9,278;0,201;-0,141;-0,094;
20200831_155120;-4,513;5,279;6,330;0,226;-0,273;-0,664;
20200831_155120;-5,193;3,021;4,896;0,419;-0,382;-0,159;
20200831_155120;-2,468;3,294;8,892;0,265;-0,570;0,082;
20200831_155120;-2,203;2,119;6,665;0,132;-0,575;0,290;
20200831_155120;-3,994;5,499;6,826;0,177;-0,451;0,268;
20200831_155120;-3,838;4,690;7,987;0,015;-0,056;1,844;
20200831_155120;1,846;4,243;10,221;-0,084;0,477;2,131;
20200831_155120;2,607;5,514;8,277;0,105;0,311;0,109;
20200831_155120;1,686;5,229;8,308;0,119;0,132;-0,803;
20200831_155120;0,903;2,100;8,104;0,083;0,107;-0,721;
20200831_155121;0,505;6,826;7,736;0,163;0,027;-0,565;
20200831_155121;-1,547;3,790;9,936;0,063;0,261;-0,140;
20200831_155121;-0,572;2,787;8,717;0,136;0,156;-0,417;
20200831_155121;-1,702;3,615;9,742;-0,024;-0,014;-0,655;
20200831_155121;2,859;5,313;12,720;-0,084;-0,354;-1,476;
20200831_155121;0,136;5,696;9,862;0,119;-0,413;-1,565;
20200831_155121;-2,698;5,191;9,570;0,266;-0,452;-1,182;
20200831_155121;-1,097;3,876;16,561;-0,008;-0,511;-0,310;
20200831_155121;-1,896;3,220;6,948;0,182;-0,361;0,147;
20200831_155121;0,268;4,851;9,038;0,126;-0,204;-0,038;
20200831_155122;-0,215;6,175;6,900;0,141;-0,326;-0,661;
20200831_155122;0,287;3,551;10,518;0,303;-0,337;-0,801;
20200831_155122;1,288;1,717;12,601;0,330;-0,446;-0,623;
20200831_155122;-1,030;3,972;9,697;0,237;-0,471;-0,456;
20200831_155122;-3,306;5,612;6,596;0,219;-0,407;0,219;
20200831_155122;-1,968;4,053;7,159;0,076;-0,284;0,671;
20200831_155122;-1,575;4,058;7,448;-0,038;-0,083;1,037;
20200831_155122;-0,601;6,134;6,900;-0,173;0,155;1,063;
20200831_155122;-1,264;6,280;5,126;0,062;0,224;0,604;
20200831_155123;0,613;2,818;8,332;0,021;0,113;0,027;
20200831_155123;0,000;3,247;10,740;0,069;0,134;-0,208;
20200831_155123;-0,927;7,211;7,307;0,111;0,003;-0,355;
20200831_155123;-1,585;3,991;12,996;-0,012;-0,102;-0,198;
20200831_155123;-1,223;4,980;4,494;-0,048;0,035;0,167;
20200831_155123;-0,395;4,853;9,996;-0,097;0,054;0,591;
20200831_155123;0,637;6,778;4,707;-0,017;0,088;0,464;
20200831_155123;0,048;4,583;6,998;0,075;0,225;0,005;
20200831_155123;1,468;8,066;4,037;0,212;0,081;-0,068;
20200831_155124;-0,141;5,332;9,618;0,079;0,052;-0,134;
20200831_155124;0,927;2,167;12,725;-0,238;0,247;0,023;
20200831_155124;0,055;4,329;8,842;-0,136;0,005;-0,158;
20200831_155124;-1,295;4,659;6,017;0,044;-0,083;-0,250;
20200831_155124;0,663;4,949;9,862;0,090;-0,072;0,463;
20200831_155124;-1,176;4,274;6,843;-0,018;0,124;0,641;
20200831_155124;-0,352;4,623;6,304;0,029;0,202;0,669;
20200831_155124;0,752;3,651;8,344;0,004;0,200;0,132;
20200831_155124;3,043;5,516;7,262;-0,034;0,190;-0,362;
20200831_155125;0,620;4,221;5,648;-0,064;0,051;-0,305;
20200831_155125;-0,251;4,154;5,684;0,090;0,062;-0,009;
20200831_155125;0,103;4,063;8,724;0,105;0,003;-0,166;
20200831_155125;-0,520;4,616;10,889;-0,108;0,027;-0,076;
20200831_155125;-1,468;4,985;9,653;-0,001;0,008;-0,157;
20200831_155125;0,673;5,241;8,294;0,052;-0,063;-0,253;
20200831_155125;-1,068;4,503;8,528;0,086;-0,031;-0,109;
20200831_155125;-0,773;6,153;10,934;0,012;-0,014;0,107;
20200831_155125;0,345;5,308;4,762;0,011;0,031;0,163;
20200831_155125;-0,170;4,578;8,842;-0,030;0,054;0,011;
20200831_155126;0,074;5,205;8,818;-0,051;-0,038;-0,170;
20200831_155126;-0,407;4,717;7,786;0,048;-0,097;-0,329;
20200831_155126;0,017;5,710;7,130;0,096;-0,140;-0,196;
20200831_155126;-0,603;6,191;8,741;0,043;-0,167;-0,167;
20200831_155126;-1,367;5,806;9,840;-0,083;-0,140;0,108;
20200831_155126;-2,473;4,329;11,638;-0,211;-0,026;0,352;
20200831_155126;0,493;6,797;1,305;0,290;-0,025;0,557;
20200831_155126;0,086;4,772;4,511;0,059;0,012;0,241;
20200831_155126;-0,333;7,563;12,378;0,119;0,187;0,356;
20200831_155127;0,723;3,962;8,815;0,017;0,127;0,016;
20200831_155127;-0,273;7,132;8,418;0,146;0,118;-0,097;
20200831_155127;-0,273;7,535;10,326;-0,028;0,081;0,057;
20200831_155127;0,132;4,032;10,276;0,030;0,085;-0,092;
20200831_155127;-0,141;6,943;11,262;-0,314;0,059;-0,189;
20200831_155127;-1,276;5,356;3,867;0,066;-0,015;-0,098;
20200831_155127;-1,413;2,701;12,026;0,051;0,051;-0,006;
20200831_155127;0,256;2,653;8,995;-0,069;0,061;-0,016;
20200831_155127;-0,117;4,647;12,373;-0,005;0,097;-0,012;
20200831_155127;-1,506;5,511;6,756;0,111;0,010;-0,108;
20200831_155128;-0,237;3,639;6,649;0,046;0,082;0,122;
20200831_155128;1,233;5,535;6,112;-0,060;0,043;-0,065;
20200831_155128;0,220;7,302;6,630;0,087;0,007;-0,368;
20200831_155128;0,333;3,603;4,659;0,052;-0,046;-0,366;
20200831_155128;-0,208;6,536;7,295;0,069;-0,142;-0,404;
20200831_155128;-1,697;3,972;9,644;-0,054;-0,161;-0,221;
20200831_155128;-0,740;3,771;8,140;0,056;-0,210;-0,091;
20200831_155128;-2,523;6,503;7,693;0,037;-0,217;0,177;
20200831_155128;-0,405;2,914;7,724;-0,177;-0,024;0,637;
20200831_155129;-2,215;6,261;8,229;-0,050;0,170;0,527;
20200831_155129;-0,991;4,269;14,597;-0,003;0,202;0,277;
20200831_155129;1,338;3,481;7,817;-0,021;0,074;-0,107;
20200831_155129;0,050;4,992;8,320;-0,107;0,148;-0,403;
20200831_155129;-2,725;4,269;6,800;0,066;0,070;-0,211;
20200831_155129;-1,245;2,172;8,052;0,149;0,050;-0,235;
20200831_155129;-1,025;3,790;18,134;-0,013;-0,011;-0,013;
20200831_155129;-1,173;4,424;9,886;-0,078;-0,022;-0,154;
20200831_155129;-0,517;3,036;5,646;0,065;-0,183;-0,479;
20200831_155130;-1,326;3,139;10,661;0,055;-0,211;-0,250;
20200831_155130;-3,369;4,262;6,045;-0,024;-0,048;0,782;
20200831_155130;-0,692;2,543;7,673;0,068;0,037;0,895;
20200831_155130;-1,041;4,614;9,488;0,033;0,200;0,431;
20200831_155130;2,126;2,672;8,825;0,001;0,139;0,213;
20200831_155130;3,565;3,666;8,119;-0,064;0,092;-0,148;
20200831_155130;1,709;2,631;11,514;-0,110;-0,004;-0,677;
20200831_155130;0,567;3,280;9,261;0,064;-0,064;-0,508;
20200831_155130;0,136;2,538;12,553;-0,044;-0,112;-0,463;
20200831_155130;-0,436;6,572;14,181;-0,213;-0,119;-0,349;
20200831_155131;-2,854;6,610;0,055;0,061;-0,111;0,124;
20200831_155131;-1,389;8,526;5,001;-0,214;-0,159;0,321;
20200831_155131;0,136;4,554;9,000;0,019;-0,061;0,081;
20200831_155131;-2,995;8,784;3,682;0,029;-0,060;0,184;
20200831_155131;-2,813;6,917;0,570;0,378;0,007;0,325;
20200831_155131;-0,302;3,031;8,839;0,129;-0,030;0,257;
20200831_155131;-1,346;9,251;15,012;-0,015;0,072;0,098;
20200831_155131;1,070;1,994;10,616;-0,034;-0,113;-0,048;
20200831_155131;-0,115;5,119;13,853;-0,030;-0,161;-0,011;
20200831_155132;-1,369;4,348;6,007;-0,007;-0,007;0,109;
20200831_155132;-0,038;2,871;13,489;0,020;0,066;0,175;
20200831_155132;-0,441;7,039;-1,865;-0,059;0,041;0,228;
20200831_155132;-0,105;5,839;8,440;0,087;0,107;0,109;
20200831_155132;-0,429;4,958;12,440;-0,187;0,174;0,153;
20200831_155132;-0,457;7,712;10,587;-0,034;0,200;0,134;
20200831_155132;0,546;4,310;6,653;-0,047;0,109;-0,101;
20200831_155132;-0,539;3,560;11,794;-0,241;0,098;-0,250;
20200831_155132;-1,204;4,841;10,712;-0,257;0,040;-0,136;
20200831_155133;-1,374;4,185;8,183;0,118;-0,066;-0,025;
20200831_155133;1,353;5,025;10,321;-0,122;0,029;0,074;
20200831_155133;0,543;2,993;8,416;0,069;0,007;-0,015;
20200831_155133;-0,958;4,243;8,600;0,076;0,058;-0,143;
20200831_155133;0,350;4,293;11,966;-0,108;-0,024;0,022;
20200831_155133;-0,366;4,266;8,866;0,021;0,102;-0,098;
20200831_155133;-0,570;5,282;8,792;-0,002;0,029;-0,194;
20200831_155133;-0,316;5,385;0,869;0,003;-0,042;-0,244;
20200831_155133;-0,429;9,218;7,649;-0,059;-0,122;-0,270;
20200831_155133;-1,116;5,476;8,976;0,156;-0,109;-0,254;
20200831_155134;-1,022;2,899;11,911;-0,103;-0,191;-0,023;
20200831_155134;-1,451;7,113;10,281;0,045;-0,057;0,499;
20200831_155134;-0,321;5,748;5,871;0,188;-0,007;0,447;
20200831_155134;-0,946;6,165;11,837;0,026;0,064;0,220;
20200831_155134;0,022;4,853;5,646;-0,107;0,111;0,091;
20200831_155134;-0,077;2,792;6,182;-0,021;0,040;-0,181;
20200831_155134;0,318;3,915;9,483;0,030;0,117;-0,093;
20200831_155134;0,371;7,111;5,337;0,053;0,062;-0,072;
20200831_155134;-0,776;6,314;9,603;0,020;0,007;-0,277;
20200831_155135;0,115;5,049;7,554;0,055;-0,053;-0,131;
20200831_155135;-0,146;2,437;14,056;0,012;-0,027;-0,028;
20200831_155135;-0,567;4,168;8,988;0,066;0,009;0,161;
20200831_155135;-0,038;5,090;7,527;0,178;0,038;0,170;
20200831_155135;0,187;1,034;9,380;-0,138;0,020;-0,054;
20200831_155135;-1,075;6,677;8,059;0,016;-0,030;-0,151;
20200831_155135;1,267;1,475;6,941;-0,089;-0,037;-0,120;
20200831_155135;-1,441;5,727;9,445;-0,089;-0,048;-0,120;
20200831_155135;0,371;7,992;3,156;0,031;-0,102;-0,019;
20200831_155135;0,146;3,634;9,246;-0,007;-0,017;0,082;
20200831_155136;-0,941;4,336;10,477;-0,046;0,035;0,197;
20200831_155136;-0,723;6,385;7,774;0,061;0,041;0,033;
20200831_155136;-0,280;4,870;10,781;-0,044;0,083;-0,023;
20200831_155136;-0,594;6,474;8,064;-0,023;0,032;-0,108;
20200831_155136;-0,637;5,780;7,843;0,022;0,043;-0,137;
20200831_155136;0,024;4,779;5,521;0,030;-0,015;-0,140;
20200831_155136;-0,733;7,013;1,848;0,072;-0,026;-0,179;
20200831_155136;-1,566;1,733;15,261;-0,234;-0,054;-0,135;
20200831_155136;-0,991;7,068;6,474;-0,089;-0,022;0,070;
20200831_155137;-1,092;3,105;6,323;-0,050;-0,036;-0,064;
20200831_155137;-0,532;5,078;8,370;0,051;-0,103;-0,093;
20200831_155137;0,393;4,922;7,264;0,043;-0,060;-0,048;
20200831_155137;-0,917;7,635;2,662;0,060;-0,013;-0,010;
20200831_155137;-0,622;7,460;6,713;0,096;-0,077;-0,015;
20200831_155137;-1,077;0,843;17,152;-0,170;0,004;0,213;
20200831_155137;-0,850;-1,097;11,114;-0,021;-0,010;0,089;
20200831_155137;1,209;2,282;9,290;0,038;-0,013;-0,008;
20200831_155137;0,034;5,780;4,379;-0,036;0,058;0,008;
20200831_155138;-0,601;3,103;12,854;-0,096;-0,029;-0,194;
20200831_155138;-0,560;2,456;7,460;-0,017;-0,045;-0,125;
20200831_155138;-0,936;6,610;8,088;0,034;-0,046;-0,003;
20200831_155138;-1,197;6,481;8,361;0,017;-0,026;0,223;
20200831_155138;-1,302;6,728;7,568;0,077;0,102;0,358;
20200831_155138;-0,639;4,099;8,818;-0,035;0,141;0,268;
20200831_155138;1,475;4,781;7,642;-0,023;0,060;0,179;
20200831_155138;3,026;5,607;5,004;-0,047;0,080;-0,273;
20200831_155138;1,207;1,391;11,509;0,041;0,019;-0,417;
20200831_155138;0,359;8,078;3,438;0,125;-0,043;-0,429;
20200831_155139;2,066;2,679;6,888;0,043;-0,089;-0,647;
20200831_155139;-2,303;7,705;6,280;0,029;-0,091;-0,559;
20200831_155139;-1,791;6,622;5,631;0,159;-0,203;0,050;
20200831_155139;-3,146;4,738;6,486;-0,055;-0,092;0,239;
20200831_155139;0,189;5,871;6,314;-0,136;-0,092;0,401;
20200831_155139;1,808;5,526;15,170;-0,027;-0,025;0,045;
20200831_155139;-2,263;7,369;5,157;-0,068;0,032;0,087;
20200831_155139;0,742;3,510;1,688;-0,150;-0,106;-0,076;
20200831_155139;-0,215;1,844;12,297;-0,021;0,049;0,017;
20200831_155140;-0,196;-4,123;11,188;-0,324;-0,109;-0,266;
20200831_155140;0,630;7,221;9,251;-0,011;-0,155;-0,037;
20200831_155140;-1,149;4,240;8,966;-0,180;-0,027;0,140;
20200831_155140;-1,132;3,893;11,303;-0,080;-0,078;0,091;
20200831_155140;-0,177;0,864;13,824;-0,038;-0,070;0,209;
20200831_155140;-1,276;8,569;7,154;0,214;-0,006;0,273;
20200831_155140;-1,496;5,176;13,736;0,097;0,027;0,210;
20200831_155140;-1,008;7,614;6,565;0,132;0,234;0,537;
20200831_155140;1,338;4,875;2,820;0,123;-0,036;0,272;
20200831_155140;-1,140;5,569;10,111;-0,076;0,181;0,284;
20200831_155141;-0,199;6,768;7,616;0,127;0,192;0,414;
20200831_155141;1,312;0,742;8,408;-0,036;0,272;0,279;
20200831_155141;-0,802;3,826;7,796;0,181;0,245;0,188;
20200831_155141;1,820;1,686;6,673;-0,016;0,165;-0,125;
20200831_155141;-1,041;5,030;7,693;0,081;0,180;-0,162;
20200831_155141;-0,235;2,983;11,562;-0,072;0,142;-0,150;
20200831_155141;0,268;3,922;5,581;0,094;0,085;-0,254;
20200831_155141;-0,294;5,684;7,049;-0,044;0,031;-0,221;
20200831_155141;-0,218;2,174;8,665;-0,072;0,038;-0,123;
20200831_155142;-0,251;5,540;4,439;0,185;-0,013;-0,206;
20200831_155142;-0,199;1,420;8,641;0,072;0,001;-0,137;
20200831_155142;-1,144;3,539;13,027;0,053;-0,015;-0,175;
20200831_155142;-0,196;4,401;13,922;-0,135;-0,009;-0,165;
20200831_155142;-0,711;3,390;9,984;0,067;0,010;-0,096;
20200831_155142;0,469;5,588;10,393;-0,023;-0,067;-0,281;
20200831_155142;-1,681;8,013;5,234;0,162;-0,024;-0,253;
20200831_155142;-1,274;7,192;7,678;0,097;-0,039;-0,238;
20200831_155142;-0,517;3,256;10,482;0,037;-0,082;-0,188;
20200831_155143;-0,452;6,146;11,803;0,075;-0,088;-0,380;
20200831_155143;-0,757;3,440;8,056;-0,110;-0,086;-0,443;
20200831_155143;-1,381;8,394;1,674;0,192;-0,161;-0,495;
20200831_155143;-0,194;4,518;9,230;0,034;-0,151;-0,220;
20200831_155143;-0,852;3,529;7,853;0,042;-0,271;-0,331;
20200831_155143;-0,225;3,488;12,965;-0,205;-0,274;-0,248;
20200831_155143;-1,001;8,662;6,230;0,096;-0,211;-0,132;
20200831_155143;-0,924;6,692;0,254;0,151;-0,175;-0,101;
20200831_155143;-0,103;-1,410;18,019;0,017;-0,176;-0,028;
20200831_155143;-1,429;4,913;8,145;-0,137;-0,197;-0,117;
20200831_155144;0,242;6,946;5,107;0,010;-0,154;0,074;
20200831_155144;-1,671;5,528;9,187;0,056;-0,048;0,009;
20200831_155144;-0,196;5,016;7,882;0,037;-0,102;-0,038;
20200831_155144;-1,039;4,013;12,479;-0,038;-0,080;-0,101;
20200831_155144;-0,520;5,131;2,298;0,068;-0,048;0,140;
20200831_155144;-0,297;5,282;9,036;-0,030;-0,032;0,044;
20200831_155144;-0,591;5,574;4,503;-0,021;-0,022;0,181;
20200831_155144;0,345;6,431;10,499;-0,130;-0,024;0,046;
20200831_155144;-1,039;3,962;9,031;-0,051;0,062;0,091;
20200831_155145;-1,360;5,569;9,448;0,097;0,022;-0,037;
20200831_155145;-0,321;5,607;8,164;0,068;0,044;-0,083;
20200831_155145;0,527;5,459;9,404;-0,011;0,013;-0,386;
20200831_155145;-1,082;4,187;10,671;0,012;-0,024;-0,409;
20200831_155145;0,117;5,227;6,005;0,035;-0,087;-0,354;
20200831_155145;-2,095;4,027;10,772;-0,100;-0,040;-0,198;
20200831_155145;-0,888;5,689;10,671;-0,006;-0,098;-0,049;
20200831_155145;0,388;5,514;7,695;0,023;-0,108;-0,166;
20200831_155145;-0,390;4,259;10,513;-0,076;-0,096;-0,293;
20200831_155145;-0,630;5,306;9,491;0,066;-0,127;-0,175;
20200831_155146;-0,881;4,750;6,057;0,010;-0,115;-0,054;
20200831_155146;-2,301;5,789;8,938;-0,026;-0,041;0,104;
20200831_155146;-0,745;5,667;4,515;0,139;-0,008;0,317;
20200831_155146;-0,127;4,918;9,187;0,005;0,082;0,227;
20200831_155146;0,445;6,491;9,917;0,141;0,038;-0,339;
20200831_155146;-0,445;3,472;8,001;0,015;-0,021;-0,545;
20200831_155146;-1,607;6,213;7,908;0,067;-0,147;-0,529;
20200831_155146;-0,172;2,761;8,533;0,009;-0,124;-0,121;
20200831_155146;-0,230;3,127;9,321;-0,006;-0,167;-0,161;
20200831_155147;-0,764;4,681;7,180;-0,011;-0,125;-0,272;
20200831_155147;-1,432;3,618;7,056;0,065;-0,104;-0,273;
20200831_155147;-1,650;5,183;11,001;0,116;-0,120;-0,171;
20200831_155147;-1,458;4,731;8,792;0,018;-0,034;0,104;
20200831_155147;-0,323;4,733;3,687;0,012;-0,022;0,044;
20200831_155147;0,029;5,183;8,181;-0,057;-0,044;-0,125;
20200831_155147;-2,950;5,420;17,461;-0,092;-0,069;-0,258;
20200831_155147;1,286;6,639;2,966;-0,103;-0,098;-0,355;
20200831_155147;-1,099;5,325;4,645;0,175;-0,107;-0,229;
20200831_155148;-0,089;2,081;8,514;0,033;-0,120;-0,225;
20200831_155148;-2,140;5,449;9,108;0,095;-0,050;-0,506;
20200831_155148;0,347;0,989;9,862;-0,086;-0,189;-0,331;
20200831_155148;2,399;4,128;-1,798;0,127;-0,189;-0,305;
20200831_155148;1,168;9,179;0,326;0,148;-0,138;-0,396;
20200831_155148;1,997;5,061;9,507;-0,014;-0,274;-0,207;
20200831_155148;-3,924;14,552;4,281;0,347;-0,283;-0,370;
20200831_155148;-1,173;2,069;8,957;0,009;-0,212;0,387;
20200831_155148;0,697;2,301;4,154;0,164;-0,121;0,180;
20200831_155148;0,508;4,623;9,677;-0,068;-0,047;-0,168;
20200831_155149;-0,041;3,948;13,683;-0,065;-0,088;-0,413;
20200831_155149;-0,460;4,796;8,973;-0,024;-0,136;-0,607;
20200831_155149;-1,571;3,232;11,818;-0,111;-0,172;-0,285;
20200831_155149;-1,195;4,080;3,146;0,009;-0,206;-0,197;
20200831_155149;-1,156;5,152;32,623;-0,788;-0,153;0,183;
20200831_155149;-0,709;5,741;13,666;0,011;-0,316;0,212;
20200831_155149;-0,192;-1,829;24,632;0,369;-0,304;0,621;
20200831_155149;1,525;0,350;11,983;0,825;0,172;-0,099;
20200831_155149;-0,153;0,141;14,171;-0,157;-0,046;-0,555;
20200831_155150;-1,185;5,222;15,479;-0,069;-0,034;-0,271;
20200831_155150;2,516;7,424;12,752;0,190;-0,066;-0,357;
20200831_155150;-2,492;4,405;15,706;-0,068;-0,221;-0,413;
20200831_155150;0,060;6,270;5,763;0,048;-0,103;-0,130;
20200831_155150;-1,420;3,357;8,629;0,195;-0,004;0,285;
20200831_155150;-2,631;6,278;6,689;-0,061;-0,033;-0,061;
20200831_155150;-2,102;3,543;7,829;-0,089;0,070;0,102;
20200831_155150;-0,795;4,281;4,410;-0,006;-0,089;0,161;
20200831_155150;1,537;8,174;6,560;0,357;0,114;0,291;
20200831_155150;2,251;7,982;6,076;0,116;-0,286;-1,068;
20200831_155151;-0,302;3,443;10,566;-0,173;-0,168;-0,310;
20200831_155151;-2,543;5,897;15,349;-0,369;-0,121;-0,088;
20200831_155151;1,772;3,491;7,063;-0,128;-0,152;0,169;
20200831_155151;0,204;3,472;10,010;-0,051;-0,042;0,096;
20200831_155151;-0,438;3,151;9,313;0,010;-0,018;-0,141;
20200831_155151;-0,271;5,471;9,060;-0,004;-0,011;-0,049;
20200831_155151;-1,223;2,464;6,381;0,087;-0,027;0,359;
20200831_155151;-0,045;5,114;7,661;0,001;0,018;0,332;
20200831_155151;-1,077;9,926;10,233;-0,034;0,153;0,241;
20200831_155152;-4,070;0,656;5,698;0,184;0,132;0,452;
20200831_155152;-0,385;2,385;11,545;-0,044;0,119;0,103;
20200831_155152;-1,489;11,839;5,368;0,119;-0,016;-0,254;
20200831_155152;0,862;4,769;10,884;-0,311;-0,037;-0,158;
20200831_155152;-1,666;3,656;11,655;-0,109;0,029;-0,210;
20200831_155152;1,604;4,934;10,350;0,025;0,005;-0,154;
20200831_155152;2,112;1,233;7,118;-0,085;-0,043;-0,215;
20200831_155152;-0,922;3,728;3,024;0,117;-0,036;-0,277;
20200831_155152;-1,018;6,093;10,075;-0,038;-0,033;0,064;
20200831_155152;-0,943;2,720;9,019;-0,015;-0,055;0,144;
20200831_155153;-1,851;3,359;12,024;-0,070;-0,026;0,318;
20200831_155153;-1,314;4,049;4,013;0,053;0,107;0,262;
20200831_155153;-0,156;5,203;9,349;-0,049;0,012;-0,093;
20200831_155153;0,129;4,922;3,986;0,121;-0,033;-0,179;
20200831_155153;1,022;6,546;9,565;-0,061;0,039;-0,169;
20200831_155153;0,433;5,385;9,251;-0,121;-0,067;-0,202;
20200831_155153;-0,189;2,909;10,728;-0,091;-0,165;-0,130;
20200831_155153;1,662;5,227;-2,114;0,068;-0,132;-0,149;
20200831_155153;-2,342;3,541;8,509;-0,022;-0,025;0,079;
20200831_155154;-1,314;5,174;10,793;-0,075;0,054;0,418;
20200831_155154;1,286;8,258;7,417;0,145;0,093;0,290;
20200831_155154;-0,512;2,358;10,874;0,030;0,178;0,070;
20200831_155154;0,982;4,841;3,780;0,099;0,096;0,076;
20200831_155154;-2,751;6,630;9,991;0,005;0,083;0,006;
20200831_155154;-1,386;5,746;6,912;0,077;0,047;-0,258;
20200831_155154;-2,480;9,318;10,453;-0,043;-0,022;-0,110;
20200831_155154;-0,048;6,546;6,582;-0,032;-0,091;-0,161;
20200831_155154;-1,094;1,891;11,655;0,152;-0,007;0,156;
20200831_155154;-1,068;3,656;11,162;0,055;-0,070;0,000;
20200831_155155;-1,448;3,666;16,697;0,069;0,027;-0,067;
20200831_155155;-0,208;6,586;-0,534;-0,021;-0,033;-0,010;
20200831_155155;0,433;3,124;12,574;0,052;-0,000;0,004;
20200831_155155;0,845;4,329;6,812;-0,078;-0,033;0,038;
20200831_155155;-1,630;4,803;4,750;0,154;0,020;0,021;
20200831_155155;-0,170;4,312;9,649;0,005;0,023;0,063;
20200831_155155;-1,630;4,990;6,699;0,028;0,080;0,127;
20200831_155155;0,850;3,314;6,503;0,038;0,020;0,031;
20200831_155155;1,537;1,482;6,871;0,062;-0,131;-0,294;
20200831_155156;1,439;2,205;3,345;-0,037;-0,048;-0,121;
20200831_155156;0,630;4,729;2,583;0,357;-0,036;-0,054;
20200831_155156;0,251;9,189;5,871;0,034;0,023;0,002;
20200831_155156;1,034;8,131;16,206;-0,059;-0,011;-0,080;
20200831_155156;1,724;2,998;9,776;-0,060;0,045;-0,158;
20200831_155156;-0,998;3,249;10,180;0,092;0,017;-0,063;
20200831_155156;-2,471;1,111;9,685;-0,102;-0,042;0,049;
20200831_155156;-1,389;6,486;6,622;-0,209;-0,032;0,159;
20200831_155156;-0,287;1,374;7,690;0,006;0,036;0,152;
20200831_155157;-0,639;4,951;5,990;0,098;-0,048;-0,088;
20200831_155157;0,096;6,096;5,997;-0,059;0,017;0,016;
20200831_155157;-1,970;6,017;13,077;-0,054;-0,022;-0,058;
20200831_155157;-0,395;5,818;7,760;0,180;0,056;-0,045;
20200831_155157;1,618;7,001;4,815;-0,097;-0,046;-0,304;
20200831_155157;-1,765;5,207;8,825;-0,028;-0,016;-0,164;
20200831_155157;-0,160;3,000;6,816;-0,027;-0,072;0,051;
20200831_155157;-0,254;3,007;5,835;0,065;-0,048;0,075;
20200831_155157;0,067;3,912;16,539;-0,214;-0,045;-0,006;
20200831_155157;-1,913;2,847;8,851;0,174;0,047;0,217;
20200831_155158;-0,711;3,450;5,140;-0,111;-0,001;0,330;
20200831_155158;2,267;3,965;0,742;0,129;0,048;0,266;
20200831_155158;0,232;4,836;5,871;0,090;0,068;0,132;
20200831_155158;1,982;0,649;8,902;-0,050;-0,016;-0,016;
20200831_155158;-0,096;3,795;6,706;0,095;0,198;-0,255;
20200831_155158;-0,326;5,318;8,758;-0,016;0,175;-0,234;
20200831_155158;-0,941;4,331;10,582;-0,145;0,120;-0,217;
20200831_155158;-1,025;4,341;3,165;0,052;0,007;-0,146;
20200831_155158;1,295;2,392;5,844;-0,290;0,028;-0,002;
20200831_155159;0,043;8,492;6,330;0,071;0,065;-0,272;
20200831_155159;-0,752;3,019;7,298;0,094;0,043;-0,403;
20200831_155159;-0,536;5,780;10,329;0,035;-0,148;-0,495;
20200831_155159;-0,737;3,096;7,626;0,131;-0,163;-0,412;
20200831_155159;-1,336;8,746;9,024;-0,082;-0,269;-0,322;
20200831_155159;0,395;2,423;9,716;-0,061;-0,257;0,076;
20200831_155159;0,570;5,796;7,250;0,037;-0,347;-0,174;
20200831_155159;-1,724;-5,351;13,082;0,484;-0,318;-0,207;
20200831_155159;-2,114;12,404;15,285;0,191;0,013;0,112;
20200831_155200;-3,436;9,215;1,202;-0,289;-0,191;0,484;
20200831_155200;-0,302;-2,322;6,869;-0,421;-0,028;0,361;
20200831_155200;-1,753;2,938;17,971;-0,019;0,029;0,608;
20200831_155200;-0,110;2,140;7,506;0,050;0,202;0,116;
20200831_155200;-0,970;1,860;10,063;-0,215;0,057;-0,060;
20200831_155200;2,093;6,187;-3,709;0,720;-0,015;0,089;
20200831_155200;-0,773;0,448;43,553;-0,455;-0,037;0,334;
20200831_155200;-2,100;10,398;12,103;0,521;-0,092;0,128;
20200831_155200;-3,675;19,321;2,531;0,434;0,035;0,073;
20200831_155200;-1,918;8,784;10,599;0,068;0,107;-0,069;
20200831_155201;-0,745;3,713;7,518;0,036;0,037;-0,057;
20200831_155201;-1,894;5,258;7,065;0,080;0,115;0,173;
20200831_155201;0,457;3,158;8,775;-0,048;0,098;0,129;
20200831_155201;-1,092;6,685;5,610;-0,105;0,134;0,154;
20200831_155201;-0,790;2,914;10,094;-0,080;0,184;0,093;
20200831_155201;0,706;5,847;5,832;0,079;0,045;-0,131;
20200831_155201;-0,639;5,114;11,677;0,020;0,101;-0,060;
20200831_155201;-0,029;4,690;7,448;-0,061;0,006;-0,132;
20200831_155201;-1,650;6,565;6,261;-0,011;0,033;-0,074;
20200831_155202;0,141;8,193;8,423;0,203;-0,025;-0,113;
20200831_155202;-0,804;4,724;10,077;0,113;0,017;0,124;
20200831_155202;0,163;4,386;8,705;-0,048;0,017;0,136;
20200831_155202;-0,297;6,766;7,645;-0,019;0,047;0,197;
20200831_155202;-0,577;4,365;9,043;-0,044;0,102;0,204;
20200831_155202;-0,395;4,788;8,377;-0,020;0,135;0,132;
20200831_155202;-0,838;5,519;8,978;0,023;0,123;-0,051;
20200831_155202;-0,922;5,461;10,077;0,018;0,107;-0,156;
20200831_155202;-0,699;5,483;8,126;0,029;-0,046;-0,200;
20200831_155202;-0,572;5,777;7,788;-0,047;0,005;0,017;
20200831_155203;0,493;5,962;7,470;0,004;0,005;-0,093;
20200831_155203;-0,555;5,258;8,210;0,032;0,011;-0,186;
20200831_155203;-1,331;4,417;7,221;-0,018;-0,022;-0,025;
20200831_155203;0,065;5,150;9,457;0,026;-0,025;0,066;
20200831_155203;-1,338;4,949;9,503;-0,024;-0,011;0,005;
20200831_155203;-0,498;4,563;8,231;-0,047;0,013;0,055;
20200831_155203;-1,243;5,047;7,494;-0,032;0,029;0,061;
20200831_155203;0,362;5,071;7,072;0,006;-0,000;-0,081;
20200831_155203;-0,687;4,958;7,573;0,029;-0,049;-0,173;
20200831_155203;-0,895;4,911;8,363;-0,015;-0,095;-0,052;
20200831_155204;-0,359;5,243;7,362;0,012;-0,053;0,072;
20200831_155204;0,242;5,236;8,906;0,004;-0,015;0,016;
20200831_155204;-1,190;4,630;7,412;-0,006;0,008;-0,019;
20200831_155204;0,395;4,712;7,910;-0,035;0,032;0,113;
20200831_155204;-0,898;5,581;8,413;-0,018;0,040;0,080;
20200831_155204;-0,436;4,693;7,925;0,074;0,074;0,090;
20200831_155204;-0,306;5,435;6,699;0,093;0,036;-0,151;
20200831_155204;0,390;3,452;8,686;0,001;-0,012;-0,055;
20200831_155204;-0,165;4,865;8,226;0,014;-0,039;-0,123;
20200831_155205;0,120;4,628;8,753;-0,021;-0,088;-0,065;
20200831_155205;-0,627;5,468;9,419;-0,087;-0,095;-0,108;
20200831_155205;-0,115;5,849;-0,215;0,061;-0,109;0,073;
20200831_155205;-0,814;6,009;11,267;0,045;-0,061;0,123;
20200831_155205;-0,943;4,968;10,752;-0,055;-0,031;0,316;
20200831_155205;0,278;3,816;10,379;0,078;0,109;0,328;
20200831_155205;-1,178;5,277;10,467;-0,023;0,157;0,276;
20200831_155205;-0,919;6,381;6,029;0,126;0,133;0,152;
20200831_155205;-2,042;4,769;39,571;-0,112;0,034;-0,108;
20200831_155206;-0,048;-1,135;11,068;0,023;-0,004;-0,067;
20200831_155206;1,032;-3,089;20,229;0,109;0,075;-0,154;
20200831_155206;-0,788;7,582;6,297;-0,029;-0,010;-0,254;
20200831_155206;-0,656;7,015;4,721;0,058;0,091;0,172;
20200831_155206;0,362;0,792;9,874;-0,137;0,045;0,210;
20200831_155206;0,603;5,957;7,717;-0,085;0,090;0,000;
20200831_155206;0,105;6,749;9,572;0,041;0,050;-0,346;
20200831_155206;-0,776;5,018;7,559;-0,030;-0,061;-0,214;
20200831_155206;-2,547;3,891;7,649;-0,026;-0,079;0,027;
20200831_155207;-0,211;6,069;8,712;0,009;-0,115;0,065;
20200831_155207;-1,322;4,472;8,928;0,009;0,016;0,284;
20200831_155207;0,900;5,109;7,743;0,013;0,015;0,116;
20200831_155207;0,014;3,903;8,739;-0,031;0,058;-0,101;
20200831_155207;-0,498;3,670;7,616;-0,023;0,073;-0,053;
20200831_155207;-0,481;4,841;6,869;-0,020;0,075;0,025;
20200831_155207;-1,283;4,513;8,959;-0,037;0,140;-0,031;
20200831_155207;-0,302;5,291;8,674;0,022;0,118;0,006;
20200831_155207;-1,168;5,942;3,713;0,164;0,115;-0,110;
20200831_155207;0,529;2,138;5,291;-0,120;0,022;-0,252;
20200831_155208;0,053;2,512;11,226;-0,115;-0,105;-0,466;
20200831_155208;-1,458;8,468;7,192;0,104;-0,239;-0,264;
20200831_155208;0,223;6,246;3,958;0,048;-0,189;0,160;
20200831_155208;0,395;4,614;8,681;0,051;-0,234;0,126;
20200831_155208;-0,570;0,397;10,034;-0,315;-0,056;0,298;
20200831_155208;-0,275;5,341;8,947;0,017;-0,018;0,333;
20200831_155208;-0,172;5,174;7,223;0,060;0,084;0,185;
20200831_155208;-0,053;4,137;7,954;0,020;0,083;-0,049;
20200831_155208;-1,240;4,724;9,433;-0,084;0,101;-0,145;
20200831_155209;0,101;4,602;7,702;0,054;0,044;0,011;
20200831_155209;-0,515;4,173;6,519;0,094;0,043;-0,010;
20200831_155209;0,594;4,357;8,710;-0,019;-0,027;-0,220;
20200831_155209;-0,239;5,334;8,904;-0,043;-0,089;-0,267;
20200831_155209;-1,858;3,270;10,149;0,029;-0,066;0,051;
20200831_155209;-0,402;4,939;7,369;0,071;-0,083;0,232;
20200831_155209;-0,026;5,083;8,282;0,007;0,031;0,250;
20200831_155209;-0,481;5,442;9,261;-0,030;0,070;0,089;
20200831_155209;-0,761;3,864;9,064;0,022;0,076;-0,048;
20200831_155209;-0,936;5,243;8,645;0,061;0,039;-0,005;
20200831_155210;-0,069;4,901;7,080;0,093;0,092;0,097;
20200831_155210;0,065;4,034;10,530;-0,044;0,043;-0,270;
20200831_155210;-0,127;3,994;8,444;-0,068;-0,049;-0,277;
20200831_155210;0,213;6,732;7,623;-0,054;-0,157;-0,328;
20200831_155210;-1,374;3,867;9,799;-0,044;-0,123;0,038;
20200831_155210;-1,750;6,534;6,845;0,035;-0,098;0,291;
20200831_155210;-0,548;5,428;8,301;-0,033;0,003;0,436;
20200831_155210;-0,622;4,374;6,436;-0,008;0,083;0,242;
20200831_155210;0,184;4,099;9,965;0,031;0,154;0,151;
20200831_155211;-0,254;3,486;8,396;-0,037;0,110;-0,073;
20200831_155211;1,745;4,255;7,353;0,009;0,103;-0,141;
20200831_155211;-0,249;4,128;8,583;0,069;0,006;-0,424;
20200831_155211;-0,050;5,734;7,336;0,056;-0,081;-0,341;
20200831_155211;-0,194;5,626;7,302;0,029;-0,163;-0,195;
20200831_155211;-1,527;3,680;8,267;-0,049;-0,158;0,132;
20200831_155211;-1,142;5,909;7,539;-0,045;-0,110;0,392;
20200831_155211;-0,160;4,853;6,314;-0,036;0,020;0,330;
20200831_155211;0,311;5,375;9,541;0,016;0,078;0,249;
20200831_155211;-0,448;4,695;8,988;0,028;0,090;-0,003;
20200831_155212;-1,290;4,563;9,641;0,026;0,102;-0,007;
20200831_155212;-0,429;5,212;8,578;0,058;0,028;-0,174;
20200831_155212;-0,381;4,238;7,877;0,035;0,016;-0,118;
20200831_155212;-1,259;6,165;9,076;-0,079;0,028;0,058;
20200831_155212;-0,148;4,286;10,700;-0,059;0,074;0,053;
20200831_155212;-0,486;4,657;7,659;0,184;0,081;-0,068;
20200831_155212;-0,108;6,213;11,890;0,079;0,020;-0,135;
20200831_155212;-1,508;6,108;7,566;-0,018;0,009;-0,140;
20200831_155212;-0,666;6,045;8,856;-0,066;-0,016;0,060;
20200831_155213;-0,175;5,301;4,377;0,064;-0,039;-0,022;
20200831_155213;-0,560;5,167;8,495;0,035;0,013;-0,001;
20200831_155213;-0,570;4,120;9,728;-0,015;-0,022;0,031;
20200831_155213;-0,005;4,848;8,045;-0,038;0,008;0,008;
20200831_155213;0,309;4,949;9,677;-0,039;0,018;-0,017;
20200831_155213;-0,034;6,280;6,304;-0,027;0,023;-0,162;
20200831_155213;-0,589;5,078;8,478;-0,060;-0,091;-0,178;
20200831_155213;-0,757;4,978;8,799;-0,003;-0,097;-0,075;
20200831_155213;-0,500;5,121;9,625;-0,021;-0,130;0,055;
20200831_155214;-0,730;3,606;9,989;-0,015;-0,082;0,304;
20200831_155214;-0,393;5,107;8,334;0,022;-0,005;0,358;
20200831_155214;0,342;4,436;6,754;-0,037;0,049;0,187;
20200831_155214;-0,239;5,478;8,827;-0,059;0,062;0,044;
20200831_155214;-0,429;5,128;8,428;-0,033;0,097;0,086;
20200831_155214;0,395;3,864;8,147;0,085;0,100;-0,110;
20200831_155214;-0,352;4,578;7,578;0,067;0,060;-0,214;
20200831_155214;0,452;5,040;8,545;-0,060;0,011;-0,147;
20200831_155214;-1,245;5,128;7,013;0,021;-0,021;-0,182;
20200831_155214;-1,784;6,469;5,689;0,021;-0,074;-0,040;
20200831_155215;-1,037;4,530;8,784;-0,072;-0,122;0,139;
20200831_155215;-0,218;3,819;8,772;-0,122;-0,008;0,347;
20200831_155215;0,026;5,013;8,475;-0,017;0,022;0,037;
20200831_155215;-0,146;5,349;8,404;-0,005;-0,000;-0,026;
20200831_155215;-0,120;6,009;8,061;0,029;-0,001;-0,001;
20200831_155215;-0,364;5,222;7,341;-0,014;0,003;0,013;
20200831_155215;-0,962;4,551;8,928;-0,051;0,083;0,146;
20200831_155215;-0,105;4,752;9,134;0,009;0,138;0,059;
20200831_155215;-0,182;5,538;7,594;0,099;0,088;-0,107;
20200831_155216;-0,247;4,863;9,242;-0,008;0,041;-0,125;
20200831_155216;-0,548;4,140;7,654;-0,040;-0,012;-0,063;
20200831_155216;0,256;4,946;7,858;-0,028;-0,005;-0,003;
20200831_155216;-0,445;4,501;9,570;-0,021;-0,025;-0,090;
20200831_155216;-0,077;3,541;7,798;0,030;-0,014;-0,051;
20200831_155216;-0,536;6,294;6,835;0,034;-0,017;0,033;
20200831_155216;0,251;4,858;8,854;-0,057;0,013;0,049;
20200831_155216;-0,318;4,860;8,224;-0,043;0,025;-0,024;
20200831_155216;-0,594;6,290;9,266;0,081;0,061;-0,004;
20200831_155216;-0,081;5,401;4,843;0,167;0,019;-0,085;
20200831_155217;-0,498;7,017;9,749;-0,091;-0,014;-0,070;
20200831_155217;-0,230;3,247;7,542;-0,065;-0,082;-0,100;
20200831_155217;-0,706;7,494;7,863;0,065;-0,089;-0,049;
20200831_155217;-0,630;5,677;9,187;0,015;-0,042;0,072;
20200831_155217;-0,452;6,299;7,286;-0,019;-0,051;0,095;
20200831_155217;0,467;4,657;7,865;-0,052;-0,007;0,100;
20200831_155217;-0,010;4,870;8,327;-0,060;-0,009;-0,072;
20200831_155217;-0,792;4,743;8,748;-0,060;0,016;0,001;
20200831_155217;0,678;4,621;7,606;0,029;0,007;-0,085;
20200831_155218;-0,481;5,930;10,171;0,035;-0,045;-0,279;
20200831_155218;-1,099;4,384;7,851;0,091;-0,147;-0,022;
20200831_155218;-1,104;4,724;8,593;0,068;-0,087;0,196;
20200831_155218;-1,695;5,195;7,515;-0,057;-0,001;0,131;
20200831_155218;-0,541;3,663;8,938;-0,014;-0,031;0,170;
20200831_155218;-0,204;5,128;8,150;0,037;0,067;0,250;
20200831_155218;0,275;4,226;8,966;-0,016;0,134;-0,007;
20200831_155218;0,299;3,965;9,728;-0,018;0,051;-0,157;
20200831_155218;0,620;4,415;6,914;-0,026;0,058;-0,076;
20200831_155218;-0,065;5,741;8,885;0,059;0,056;-0,149;
20200831_155219;-0,996;4,690;9,543;0,001;-0,011;-0,143;
20200831_155219;-0,654;4,039;16,743;0,004;-0,012;-0,039;
20200831_155219;-0,965;4,130;8,792;0,103;-0,012;-0,082;
20200831_155219;-0,524;7,003;6,699;0,064;-0,051;-0,088;
20200831_155219;-0,283;4,039;7,087;-0,021;-0,077;-0,063;
20200831_155219;-0,244;4,872;8,483;-0,054;-0,087;0,113;
20200831_155219;-0,311;4,949;7,913;-0,006;-0,030;0,113;
20200831_155219;0,314;4,554;8,918;-0,003;-0,064;0,004;
20200831_155219;-1,039;5,490;8,856;0,027;0,082;0,257;
20200831_155220;0,481;5,765;8,102;0,151;0,021;0,061;
20200831_155220;0,515;3,747;7,266;0,072;0,017;-0,111;
20200831_155220;-0,958;4,324;8,545;0,015;-0,042;-0,039;
20200831_155220;-1,087;4,343;8,021;-0,042;0,034;0,242;
20200831_155220;-0,467;4,676;9,639;0,016;0,033;0,170;
20200831_155220;0,754;5,452;7,015;0,018;0,052;0,031;
20200831_155220;-0,352;4,719;8,179;-0,044;0,096;-0,018;
20200831_155220;-0,680;5,085;8,962;-0,023;0,096;0,054;
20200831_155220;-0,024;3,546;9,479;-0,061;0,142;0,048;
20200831_155221;0,637;4,386;7,410;-0,036;0,065;-0,256;
20200831_155221;-0,567;5,332;7,946;-0,080;-0,022;-0,255;
20200831_155221;-1,271;5,016;9,187;-0,021;-0,046;-0,018;
20200831_155221;-0,716;4,693;8,028;-0,089;0,020;0,180;
20200831_155221;0,151;4,003;7,293;0,084;-0,061;0,021;
20200831_155221;-0,108;5,839;9,397;0,027;0,034;-0,022;
20200831_155221;0,414;4,441;11,193;-0,056;0,002;-0,043;
20200831_155221;-0,438;2,658;7,807;-0,082;-0,030;-0,163;
20200831_155221;-0,565;2,116;12,838;-0,134;-0,116;-0,101;
20200831_155221;-0,208;6,349;6,555;0,065;-0,058;0,091;
20200831_155222;-0,903;6,874;9,931;0,072;-0,064;-0,018;
20200831_155222;-0,740;4,693;8,602;-0,011;-0,074;0,111;
20200831_155222;-0,517;4,827;9,529;-0,006;-0,006;0,198;
20200831_155222;1,073;4,805;5,289;0,149;0,015;0,116;
20200831_155222;-0,373;5,641;5,567;0,087;0,003;-0,028;
20200831_155222;0,709;6,577;-9,548;-0,068;-0,069;0,041;
20200831_155222;-0,160;7,659;2,531;-0,472;-0,023;0,284;
20200831_155222;0,340;-0,285;6,110;0,397;0,054;0,088;
20200831_155222;-1,168;12,318;11,878;0,144;0,255;0,120;
20200831_155223;-1,635;9,170;-22,115;-0,789;-0,028;0,154;
20200831_155223;0,958;6,246;7,257;0,103;0,021;-0,273;
20200831_155223;-1,279;7,657;20,236;-0,820;-0,267;-0,375;
20200831_155223;-2,349;10,285;14,703;0,118;0,018;0,070;
20200831_155223;-0,012;4,424;7,539;-0,039;-0,239;0,034;
20200831_155223;-0,424;4,978;10,367;0,049;-0,109;0,232;
20200831_155223;-0,455;5,516;9,091;-0,004;-0,025;0,267;
20200831_155223;-0,450;5,914;7,365;-0,029;0,024;0,188;
20200831_155223;-0,342;5,207;10,853;0,033;0,103;0,254;
20200831_155224;0,038;5,138;8,210;-0,018;0,141;0,106;
20200831_155224;-0,460;6,546;5,995;-0,020;0,119;-0,074;
20200831_155224;-1,305;7,353;3,208;-0,011;0,183;0,039;
20200831_155224;1,999;2,930;3,867;0,180;0,072;-0,013;
20200831_155224;-0,036;2,538;6,989;0,147;0,094;-0,346;
20200831_155224;-0,115;1,616;7,300;-0,047;-0,028;-0,419;
20200831_155224;2,083;3,239;5,394;0,042;-0,136;-0,265;
20200831_155224;-1,396;8,459;10,235;-0,039;-0,080;-0,240;
20200831_155224;-0,074;3,259;8,059;-0,039;-0,140;0,020;
20200831_155224;-0,970;7,946;12,747;0,018;-0,055;0,171;
20200831_155225;0,019;6,378;2,751;-0,068;-0,058;0,138;
20200831_155225;-1,482;5,001;8,727;-0,022;-0,038;0,041;
20200831_155225;-0,436;3,728;9,084;-0,068;-0,036;0,130;
20200831_155225;2,054;8,112;6,989;0,031;-0,074;-0,048;
20200831_155225;0,160;5,974;9,081;0,099;-0,106;-0,238;
20200831_155225;-0,493;5,052;5,267;0,028;-0,072;0,147;
20200831_155225;-0,761;6,050;8,990;-0,042;0,003;0,170;
20200831_155225;-0,725;4,116;7,041;-0,092;0,054;0,193;
20200831_155225;-0,196;4,475;6,721;-0,030;0,101;0,083;
20200831_155226;1,116;4,927;8,298;0,012;0,078;-0,070;
20200831_155226;-1,408;4,626;8,444;-0,018;0,081;-0,152;
20200831_155226;0,019;3,953;8,478;-0,004;-0,021;-0,071;
20200831_155226;-1,190;4,846;8,782;0,048;-0,026;-0,104;
20200831_155226;-0,086;6,342;6,258;0,054;-0,098;-0,116;
20200831_155226;-0,946;4,293;8,164;0,014;-0,058;0,046;
20200831_155226;0,608;4,583;8,356;-0,034;-0,003;0,091;
20200831_155226;-0,364;5,337;8,174;-0,023;-0,043;-0,013;
20200831_155226;-0,417;4,949;8,107;0,028;0,061;0,143;
20200831_155226;-0,268;5,188;8,866;0,029;0,074;-0,021;
20200831_155227;0,077;5,646;8,052;0,065;0,039;-0,217;
20200831_155227;-1,645;4,551;8,938;-0,003;-0,060;-0,065;
20200831_155227;-0,393;6,584;6,505;0,012;-0,007;0,185;
20200831_155227;-0,860;5,219;9,926;0,017;0,022;0,050;
20200831_155227;-0,462;3,649;8,418;-0,006;0,011;0,078;
20200831_155227;0,771;5,270;7,695;-0,049;0,016;-0,028;
20200831_155227;-0,354;3,919;9,436;-0,010;0,001;-0,131;
20200831_155227;-0,503;4,760;8,566;0,017;-0,014;-0,070;
20200831_155227;-0,587;4,606;8,921;0,000;0,019;0,031;
20200831_155228;-1,523;5,160;8,215;-0,004;-0,034;0,021;
20200831_155228;-0,919;4,623;10,238;-0,016;-0,049;0,104;
20200831_155228;-0,041;4,913;8,918;0,006;-0,021;0,143;
20200831_155228;-1,018;5,301;9,160;0,002;0,118;0,181;
20200831_155228;-0,077;4,997;7,022;0,034;0,026;-0,118;
20200831_155228;0,311;4,281;8,861;-0,013;0,031;-0,106;
20200831_155228;0,919;4,834;9,002;-0,003;-0,027;-0,264;
20200831_155228;-1,025;5,509;8,365;0,001;-0,058;-0,214;
20200831_155228;-1,228;5,145;7,096;0,029;-0,120;0,028;
20200831_155228;-0,713;5,241;7,999;-0,026;-0,063;0,214;
20200831_155229;-1,252;4,688;11,329;-0,073;-0,022;0,251;
20200831_155229;-0,134;4,556;9,814;-0,073;0,002;0,228;
20200831_155229;0,060;5,662;9,857;0,001;0,042;0,062;
20200831_155229;-0,642;5,083;9,225;0,154;0,086;-0,068;
20200831_155229;-0,833;7,017;10,053;0,061;0,022;0,183;
20200831_155229;0,541;4,650;7,985;-0,102;0,051;0,097;
20200831_155229;-0,105;4,606;7,494;-0,010;0,072;-0,052;
20200831_155229;-0,838;3,546;8,552;0,010;0,106;0,103;
20200831_155229;-0,031;4,664;8,689;-0,007;0,115;-0,063;
20200831_155229;0,093;6,072;6,144;0,061;0,091;-0,174;
20200831_155230;-0,079;5,327;6,898;0,217;-0,060;-0,391;
20200831_155230;-1,535;5,538;7,956;-0,043;-0,153;-0,183;
20200831_155230;-1,444;5,634;6,261;-0,008;-0,102;0,178;
20200831_155230;-1,147;5,696;7,884;-0,062;-0,061;0,241;
20200831_155230;0,599;5,739;8,155;-0,056;0,009;0,146;
20200831_155230;-0,350;4,755;7,930;0,058;0,062;-0,047;
20200831_155230;-0,761;3,821;8,914;0,016;0,042;0,000;
20200831_155230;-0,172;4,319;8,478;0,019;0,054;0,015;
20200831_155230;-0,929;3,970;10,044;-0,021;0,074;0,044;
20200831_155231;-0,045;4,247;7,858;-0,060;0,025;-0,027;
20200831_155231;-0,646;4,594;11,198;-0,087;-0,007;-0,093;
20200831_155231;-0,211;4,329;7,254;0,012;-0,028;-0,070;
20200831_155231;-1,228;4,235;12,189;0,041;-0,006;-0,092;
20200831_155231;0,445;3,677;7,374;0,019;-0,033;-0,008;
20200831_155231;0,488;4,523;7,728;-0,050;-0,120;-0,148;
20200831_155231;-1,654;5,243;10,187;0,001;-0,048;0,114;
20200831_155231;-0,378;3,771;9,852;-0,039;-0,009;0,206;
20200831_155231;-0,749;4,958;7,963;0,017;0,050;0,210;
20200831_155232;-0,285;6,630;8,037;-0,004;0,077;0,218;
20200831_155232;0,067;5,274;8,416;0,028;0,138;0,050;
20200831_155232;1,068;4,681;9,591;-0,015;0,123;-0,206;
20200831_155232;-0,752;5,353;8,794;0,052;0,057;-0,363;
20200831_155232;-0,309;4,858;7,355;0,012;-0,025;-0,196;
20200831_155232;0,069;5,085;7,544;-0,001;-0,062;0,005;
20200831_155232;-0,034;5,480;6,215;0,012;-0,015;-0,037;
20200831_155232;-0,273;4,554;7,496;0,030;-0,026;-0,166;
20200831_155232;-1,144;4,465;7,151;-0,005;-0,041;-0,049;
20200831_155233;0,072;4,384;7,728;0,020;-0,082;0,020;
20200831_155233;-0,388;4,848;8,248;0,056;-0,070;-0,032;
20200831_155233;-0,570;4,951;9,304;0,013;-0,037;0,034;
20200831_155233;0,101;4,791;7,645;-0,011;-0,064;-0,093;
20200831_155233;0,017;5,504;9,797;0,023;-0,129;-0,199;
20200831_155233;-0,508;5,085;9,680;-0,004;-0,138;-0,034;
20200831_155233;-0,646;5,114;7,731;0,012;-0,151;0,067;
20200831_155233;-0,512;4,652;9,029;-0,051;-0,072;0,217;
20200831_155233;0,012;6,127;7,384;0,026;-0,029;0,279;
20200831_155233;-0,857;5,856;10,690;0,031;0,090;0,305;
20200831_155234;-1,051;3,883;7,841;-0,061;0,171;0,207;
20200831_155234;0,488;5,619;9,292;-0,046;0,191;0,221;
20200831_155234;2,325;4,252;6,929;-0,017;0,129;-0,315;
20200831_155234;0,177;4,860;6,943;0,043;0,065;-0,518;
20200831_155234;-0,172;3,594;10,149;0,015;-0,070;-0,382;
20200831_155234;0,089;5,282;3,029;0,216;-0,202;-0,066;
20200831_155234;-1,331;5,416;9,735;0,006;-0,116;0,178;
20200831_155234;-0,848;5,011;9,313;-0,258;-0,060;0,287;
20200831_155234;0,448;4,985;6,206;-0,006;0,108;0,269;
20200831_155235;0,314;5,787;8,104;0,031;0,061;-0,010;
20200831_155235;-0,038;6,349;9,582;0,021;0,048;-0,107;
20200831_155235;-0,424;5,143;8,866;0,032;0,039;-0,165;
20200831_155235;-0,184;4,731;8,566;0,023;0,022;-0,145;
20200831_155235;-0,450;5,420;7,128;-0,006;-0,054;-0,105;
20200831_155235;-0,352;5,911;8,298;0,015;-0,043;-0,065;
20200831_155235;0,098;5,073;7,709;-0,019;-0,070;-0,050;
20200831_155235;-0,871;4,381;9,177;-0,014;-0,013;0,041;
20200831_155235;0,160;5,272;7,417;0,004;-0,009;0,103;
20200831_155235;-0,783;5,842;8,827;-0,024;0,021;-0,034;
20200831_155236;-0,460;5,361;9,050;0,020;-0,053;-0,067;
20200831_155236;-0,606;4,853;9,143;0,010;-0,020;0,097;
20200831_155236;0,141;4,863;7,894;-0,007;0,021;0,136;
20200831_155236;-0,678;5,614;8,724;0,000;0,001;-0,038;
20200831_155236;-0,278;4,798;9,143;-0,015;0,024;-0,052;
20200831_155236;-0,096;6,050;6,306;0,012;-0,026;-0,142;
20200831_155236;0,484;4,618;7,681;0,049;-0,024;-0,188;
20200831_155236;-0,136;3,761;8,428;-0,012;-0,110;-0,133;
20200831_155236;-0,845;5,298;8,614;0,042;-0,040;0,108;
20200831_155237;-2,181;5,042;7,819;0,025;-0,018;0,178;
20200831_155237;0,084;4,973;7,262;-0,017;-0,025;0,236;
20200831_155237;0,457;4,269;7,695;-0,016;-0,000;0,027;
20200831_155237;0,093;4,705;8,104;0,015;-0,011;-0,266;
20200831_155237;-1,621;5,037;7,439;-0,007;-0,069;-0,037;
20200831_155237;0,565;4,523;7,283;-0,033;-0,047;0,156;
20200831_155237;-0,383;5,643;7,468;-0,005;-0,008;0,113;
20200831_155237;0,290;5,605;6,677;0,009;0,028;0,036;
20200831_155237;-0,168;3,862;8,382;0,050;0,036;0,097;
20200831_155237;0,460;5,435;6,730;0,108;0,066;-0,012;
20200831_155238;0,081;4,961;8,186;0,006;0,037;-0,197;
20200831_155238;-0,783;4,616;7,697;-0,085;-0,064;-0,055;
20200831_155238;-0,742;4,168;8,095;-0,039;-0,039;0,041;
20200831_155238;-1,518;4,626;10,862;-0,026;-0,086;0,058;
20200831_155238;-1,396;5,751;6,079;0,054;-0,051;0,180;
20200831_155238;-0,089;5,306;6,203;-0,017;0,009;0,395;
20200831_155238;1,290;3,783;9,175;-0,181;0,076;0,161;
20200831_155238;-0,546;4,087;8,885;0,102;0,235;0,204;
20200831_155238;0,302;1,135;3,697;0,343;0,312;0,103;
20200831_155239;-0,211;0,852;8,926;-0,036;0,279;-0,276;
20200831_155239;-0,955;1,688;7,855;-0,061;0,135;-0,541;
20200831_155239;-0,271;7,487;14,930;-0,122;0,003;-0,378;
20200831_155239;-0,036;1,844;5,028;0,281;-0,043;-0,251;
20200831_155239;-1,360;7,700;2,593;0,479;-0,110;-0,276;
20200831_155239;-2,528;7,015;6,388;0,016;-0,034;-0,134;
20200831_155239;0,450;3,318;2,191;0,061;-0,143;0,249;
20200831_155239;-0,393;2,998;11,064;-0,235;-0,011;0,013;
20200831_155239;1,331;0,113;-3,309;0,333;-0,044;-0,072;
20200831_155240;-0,273;4,312;13,522;-0,463;-0,023;-0,140;
20200831_155240;0,694;1,120;13,245;-0,002;0,050;0,096;
20200831_155240;-1,927;7,760;4,453;-0,033;-0,111;0,075;
20200831_155240;-0,522;-5,962;4,010;0,233;-0,148;-0,180;
20200831_155240;-1,662;6,788;5,957;0,032;-0,031;-0,452;
20200831_155240;-4,259;13,558;4,896;-0,538;-0,359;-0,354;
20200831_155240;1,791;11,200;-7,578;0,388;-0,250;0,021;
20200831_155240;-0,335;-0,618;15,289;0,031;-0,206;0,190;
20200831_155240;-0,661;2,066;13,080;-0,285;-0,040;0,440;
20200831_155241;0,974;7,843;4,556;0,006;0,099;0,468;
20200831_155241;0,182;1,104;10,240;-0,081;0,163;0,044;
20200831_155241;0,323;2,409;5,066;0,090;0,084;-0,276;
20200831_155241;-0,943;7,724;5,162;-0,032;0,059;-0,123;
20200831_155241;-0,464;5,411;9,378;-0,088;0,065;0,014;
20200831_155241;-0,132;8,732;8,590;-0,124;-0,018;-0,031;
20200831_155241;-0,546;5,523;5,995;-0,070;0,029;0,007;
20200831_155241;-0,855;8,672;5,167;0,213;0,119;-0,243;
20200831_155241;0,141;2,698;4,568;0,098;0,047;-0,350;
20200831_155242;0,306;9,110;16,070;-0,138;0,007;-0,309;
20200831_155242;0,484;3,598;9,273;0,011;-0,185;-0,688;
20200831_155242;-1,286;12,912;6,974;0,086;-0,341;-0,605;
20200831_155242;-3,910;4,161;4,037;0,162;-0,516;-0,020;
20200831_155242;-3,371;5,234;9,041;0,033;-0,439;0,567;
20200831_155242;-1,992;2,047;15,146;-0,247;-0,155;1,021;
20200831_155242;0,304;7,084;13,269;-0,333;0,038;0,875;
20200831_155242;0,934;3,323;18,723;0,469;0,141;0,287;
20200831_155242;3,407;9,366;5,997;-0,199;0,051;-0,067;
20200831_155242;1,563;-3,290;18,493;0,470;0,435;-0,400;
20200831_155243;-5,385;11,808;9,014;0,121;0,311;0,185;
20200831_155243;-2,442;0,383;2,227;0,172;0,310;-0,012;
20200831_155243;-1,393;6,823;5,911;-0,039;0,134;-0,143;
20200831_155243;0,448;0,754;7,350;-0,383;-0,063;-0,176;
20200831_155243;-2,660;0,385;36,907;-0,589;0,021;0,148;
20200831_155243;3,967;2,167;0,625;0,016;-0,037;0,093;
20200831_155243;-2,363;19,259;2,732;0,261;0,145;0,197;
20200831_155243;1,757;1,360;13,290;-0,052;0,154;0,258;
20200831_155243;0,699;5,353;6,479;0,149;0,267;-0,009;
20200831_155244;-0,074;3,373;9,380;0,148;0,139;-0,223;
20200831_155244;-0,146;5,179;7,642;-0,102;0,233;-0,027;
20200831_155244;-1,001;4,954;11,193;-0,044;0,102;-0,272;
20200831_155244;-0,184;4,324;8,466;0,012;-0,021;-0,234;
20200831_155244;-2,021;5,078;9,677;-0,184;-0,022;-0,015;
20200831_155244;-1,422;5,279;4,147;0,156;-0,071;-0,182;
20200831_155244;-0,060;5,892;9,309;0,148;-0,158;-0,186;
20200831_155244;-1,391;5,895;11,645;-0,030;-0,036;0,042;
20200831_155244;0,359;7,807;4,918;-0,023;-0,121;0,073;
20200831_155244;-1,437;5,373;8,578;-0,043;0,106;0,229;
20200831_155245;0,462;5,674;7,580;-0,077;0,110;0,202;
20200831_155245;0,646;4,963;10,388;0,077;0,116;0,005;
20200831_155245;0,452;5,669;9,594;0,058;0,078;-0,248;
20200831_155245;-1,281;5,488;8,732;-0,075;0,062;-0,258;
20200831_155245;-0,646;6,345;6,653;0,042;-0,013;-0,183;
20200831_155245;-0,680;4,286;10,278;-0,026;-0,137;-0,265;
20200831_155245;-0,812;6,105;7,994;0,050;-0,128;-0,227;
20200831_155245;-1,319;5,423;8,595;-0,018;-0,129;-0,098;
20200831_155245;-0,189;5,655;6,335;0,071;-0,137;-0,015;
20200831_155246;-2,464;4,839;5,303;-0,053;-0,112;0,079;
20200831_155246;-0,378;4,427;7,068;0,095;-0,122;0,311;
20200831_155246;-0,201;4,185;8,973;-0,075;0,003;0,250;
20200831_155246;0,366;4,594;8,882;0,001;0,021;0,095;
20200831_155246;-1,341;6,304;12,069;0,111;0,072;0,168;
20200831_155246;0,500;4,750;10,295;0,077;0,075;0,207;
20200831_155246;-0,603;6,543;14,001;-0,165;0,114;-0,111;
20200831_155246;1,185;3,929;1,923;0,070;0,005;-0,143;
20200831_155246;-1,346;11,375;8,815;0,132;-0,074;-0,409;
20200831_155246;2,037;-0,290;10,642;0,018;-0,026;-0,143;
20200831_155247;-1,820;5,942;6,314;-0,149;-0,156;0,078;
20200831_155247;-0,503;3,816;8,543;-0,045;-0,037;0,292;
20200831_155247;0,654;5,258;6,460;-0,006;-0,005;0,196;
20200831_155247;0,160;4,398;7,453;-0,078;0,059;0,211;
20200831_155247;-0,364;3,661;0,845;0,191;0,116;0,173;
20200831_155247;0,747;5,215;-0,306;0,418;0,055;-0,032;
20200831_155247;0,553;0,146;9,606;-0,078;0,052;-0,120;
20200831_155247;1,300;-0,105;12,194;-0,166;0,026;-0,142;
20200831_155247;0,208;5,140;7,034;0,014;-0,032;-0,182;
20200831_155248;-0,448;5,035;9,297;0,011;-0,013;-0,005;
20200831_155248;-0,673;3,828;6,230;0,019;-0,069;-0,043;
20200831_155248;-0,029;4,472;10,221;0,021;0,049;0,134;
20200831_155248;-0,852;4,736;8,636;-0,003;-0,013;0,040;
20200831_155248;-0,472;5,480;9,196;-0,043;-0,031;0,066;
20200831_155248;-1,233;4,539;6,835;0,027;0,019;0,087;
20200831_155248;0,259;5,555;7,549;0,069;0,021;0,138;
20200831_155248;-0,651;4,587;9,919;-0,043;0,013;-0,019;
20200831_155248;0,347;4,549;7,812;-0,024;0,031;0,066;
20200831_155249;0,778;5,267;8,559;0,029;0,022;-0,038;
20200831_155249;-0,364;4,573;8,710;-0,011;0,089;0,021;
20200831_155249;0,608;4,108;7,499;-0,010;0,068;-0,019;
20200831_155249;0,132;4,793;8,004;-0,008;0,081;-0,145;
20200831_155249;0,783;5,049;9,443;0,001;-0,047;-0,200;
20200831_155249;-1,772;5,435;8,825;-0,020;-0,086;-0,137;
20200831_155249;-1,532;4,061;8,265;-0,007;-0,116;0,140;
20200831_155249;-1,269;3,994;8,126;0,017;-0,013;0,417;
20200831_155249;0,069;4,685;6,505;0,013;0,029;0,249;
20200831_155249;0,630;4,341;8,358;-0,021;0,108;0,039;
20200831_155250;0,898;4,362;9,120;-0,010;0,089;-0,180;
20200831_155250;0,239;5,004;8,394;0,011;0,067;-0,153;
20200831_155250;0,666;4,724;9,292;-0,014;0,008;-0,148;
20200831_155250;-1,197;4,025;7,477;-0,015;-0,011;-0,176;
20200831_155250;-0,879;5,447;7,695;-0,008;0,013;0,026;
20200831_155250;-0,532;3,661;8,085;-0,024;-0,012;0,192;
20200831_155250;0,225;5,152;8,068;-0,030;-0,033;-0,085;
20200831_155250;-1,575;5,588;7,379;0,030;0,023;-0,085;
20200831_155250;0,117;4,408;8,693;-0,022;-0,062;-0,061;
20200831_155251;-0,065;6,474;8,246;0,011;-0,025;0,060;
20200831_155251;-0,043;5,116;9,208;-0,001;-0,009;-0,089;
20200831_155251;-1,077;4,185;8,301;0,032;-0,034;-0,052;
20200831_155251;0,005;5,071;8,645;0,048;0,032;0,194;
20200831_155251;-0,596;4,863;8,485;-0,010;0,085;0,058;
20200831_155251;-1,171;5,758;7,695;-0,010;0,075;-0,054;
20200831_155251;-0,651;5,116;8,399;0,003;0,078;0,089;
20200831_155251;0,814;4,503;8,430;0,026;-0,027;-0,172;
20200831_155251;-0,275;6,170;7,446;0,035;0,008;-0,303;
20200831_155252;-0,196;4,975;7,408;0,016;-0,110;-0,256;
20200831_155252;0,079;4,887;8,013;0,009;-0,111;-0,147;
20200831_155252;-0,532;5,497;7,764;-0,013;-0,076;0,012;
20200831_155252;-0,599;3,926;8,705;0,006;-0,077;0,016;
20200831_155252;-0,529;4,008;8,430;-0,010;-0,067;0,175;
20200831_155252;-0,881;4,688;8,011;-0,016;0,003;0,001;
20200831_155252;-0,972;5,887;9,352;-0,026;-0,001;-0,026;
20200831_155252;-1,075;5,040;8,080;0,016;0,032;0,085;
20200831_155252;0,673;4,748;8,387;0,047;-0,056;-0,051;
20200831_155252;-0,912;4,709;7,707;0,011;-0,039;-0,202;
20200831_155253;0,254;4,092;9,325;0,016;-0,104;-0,158;
20200831_155253;0,141;5,011;7,199;0,010;-0,087;-0,013;
20200831_155253;-0,778;5,416;7,611;0,006;-0,050;-0,001;
20200831_155253;-0,888;4,544;8,780;-0,023;-0,120;0,030;
20200831_155253;0,034;4,975;8,399;0,016;-0,037;0,157;
20200831_155253;-0,385;5,753;8,092;0,002;-0,048;0,116;
20200831_155253;-0,445;5,095;7,089;0,044;-0,049;0,169;
20200831_155253;-1,389;4,841;8,013;-0,012;0,070;0,335;
20200831_155253;-1,025;-0,572;24,418;-0,421;0,090;-0,064;
20200831_155254;1,537;4,697;6,974;0,016;-0,028;-0,052;
20200831_155254;-0,259;14,770;5,169;0,290;0,024;-0,072;
20200831_155254;2,600;4,530;1,403;0,047;-0,073;-0,078;
20200831_155254;-2,959;5,442;7,451;-0,030;-0,025;-0,191;
20200831_155254;-0,421;2,167;6,950;-0,290;-0,071;0,228;
20200831_155254;-0,227;5,282;7,829;-0,040;0,091;0,279;
20200831_155254;-0,539;6,917;6,409;0,116;0,090;0,179;
20200831_155254;-1,207;5,452;7,293;-0,021;0,121;0,010;
20200831_155254;1,231;3,191;8,727;-0,133;0,050;-0,114;
20200831_155255;-0,852;6,053;7,341;0,011;-0,026;-0,357;
20200831_155255;-0,381;4,571;8,906;-0,044;-0,056;-0,064;
20200831_155255;-1,080;5,521;8,732;-0,006;-0,060;-0,048;
20200831_155255;0,136;5,171;7,214;0,044;0,032;0,096;
20200831_155255;-0,251;4,875;7,951;0,028;-0,034;0,057;
20200831_155255;-0,043;4,748;8,121;-0,011;0,010;0,031;
20200831_155255;-0,687;4,413;9,055;-0,012;0,006;-0,082;
20200831_155255;-0,831;5,456;7,556;-0,001;-0,037;0,027;
20200831_155255;-0,022;4,152;8,085;-0,031;-0,085;0,143;
20200831_155255;-0,237;5,102;7,963;-0,005;0,017;0,187;
20200831_155256;-0,771;4,087;10,719;0,006;0,015;0,018;
20200831_155256;0,294;5,239;7,626;-0,005;0,113;0,107;
20200831_155256;0,625;4,599;9,005;-0,040;0,104;-0,065;
20200831_155256;-0,850;3,206;8,734;-0,019;0,077;-0,216;
20200831_155256;0,017;5,095;9,242;-0,020;0,034;-0,167;
20200831_155256;-0,886;3,871;8,602;-0,022;-0,039;-0,134;
20200831_155256;-0,371;6,079;7,439;0,007;-0,125;0,064;
20200831_155256;-1,346;5,258;9,675;-0,016;-0,063;0,110;
20200831_155256;-0,690;4,166;9,330;0,003;0,007;0,179;
20200831_155257;-0,611;4,707;7,252;0,012;-0,030;0,059;
20200831_155257;0,702;5,090;8,124;-0,020;0,062;0,137;
20200831_155257;-0,036;5,519;8,279;-0,019;0,069;-0,002;
20200831_155257;-0,479;5,504;8,033;-0,052;0,139;-0,090;
20200831_155257;0,160;4,841;8,282;0,013;0,087;-0,203;
20200831_155257;-0,670;4,781;8,305;0,003;0,085;-0,102;
20200831_155257;-0,508;6,115;7,949;0,049;-0,009;-0,256;
20200831_155257;-0,711;5,346;7,865;0,060;-0,041;-0,065;
20200831_155257;0,529;5,080;8,823;0,048;-0,118;-0,104;
20200831_155258;-0,381;4,968;8,595;0,015;-0,158;-0,034;
20200831_155258;-0,505;5,567;6,680;0,018;-0,150;0,208;
20200831_155258;0,622;4,707;8,207;0,012;-0,040;0,193;
20200831_155258;-0,417;4,492;9,562;-0,034;0,032;0,067;
20200831_155258;0,127;5,370;8,234;-0,012;0,010;0,036;
20200831_155258;-0,050;5,813;6,352;0,048;0,107;0,065;
20200831_155258;-0,620;6,246;8,260;-0,010;0,053;-0,122;
20200831_155258;-0,936;5,533;7,226;0,007;-0,010;-0,124;
20200831_155258;-0,086;4,255;8,444;0,009;-0,081;-0,082;
20200831_155258;-1,815;5,265;8,291;-0,023;-0,121;0,051;
20200831_155259;0,218;4,695;8,277;-0,003;-0,044;0,283;
20200831_155259;0,433;4,434;8,317;-0,011;0,039;0,072;
20200831_155259;-0,618;4,568;9,448;-0,007;0,057;-0,035;
20200831_155259;0,208;5,758;7,633;0,015;0,053;0,114;
20200831_155259;-0,359;5,229;8,286;0,019;0,102;-0,042;
20200831_155259;-0,536;4,250;9,754;0,001;0,054;-0,084;
20200831_155259;-0,742;4,999;7,393;0,006;0,001;-0,064;
20200831_155259;0,591;5,124;8,207;0,009;0,033;-0,010;
20200831_155259;-0,479;5,152;8,001;0,017;-0,058;-0,149;
20200831_155300;-0,002;5,861;7,712;-0,017;-0,029;0,014;
20200831_155300;-0,132;5,080;8,420;0,000;-0,014;-0,055;
20200831_155300;-1,168;3,855;8,684;-0,003;0,005;0,026;
20200831_155300;0,862;5,219;7,379;0,028;0,018;0,140;
20200831_155300;-1,135;5,401;7,898;0,032;0,026;-0,058;
20200831_155300;-0,903;5,808;6,776;-0,002;-0,022;0,060;
20200831_155300;-0,472;4,551;8,317;0,016;-0,027;-0,016;
20200831_155300;-0,153;4,855;8,487;0,039;0,010;0,065;
20200831_155300;0,045;4,729;8,349;0,014;0,003;-0,055;
20200831_155301;0,438;4,877;9,519;0,010;-0,046;-0,164;
20200831_155301;-0,797;5,138;7,937;0,042;-0,043;-0,117;
20200831_155301;-0,843;4,436;7,918;-0,022;-0,057;0,136;
20200831_155301;-0,486;5,835;9,088;-0,033;-0,020;0,225;
20200831_155301;-0,618;5,045;8,782;-0,030;0,076;0,278;
20200831_155301;0,927;5,045;7,994;-0,020;0,097;-0,074;
20200831_155301;-1,259;4,515;7,951;-0,013;0,083;-0,231;
20200831_155301;-0,050;4,405;8,959;0,010;-0,001;-0,100;
20200831_155301;-0,515;3,428;9,459;0,018;-0,099;-0,134;
20200831_155301;-0,065;5,047;8,384;-0,010;-0,063;0,030;
20200831_155302;-0,019;4,944;9,103;0,002;-0,018;-0,065;
20200831_155302;-0,946;4,544;8,112;0,056;-0,007;-0,057;
20200831_155302;-0,697;5,210;7,918;0,035;-0,048;0,070;
20200831_155302;-1,211;5,210;7,223;0,011;0,005;0,070;
20200831_155302;-0,790;5,243;8,308;-0,022;0,006;0,092;
20200831_155302;-0,766;5,339;8,875;-0,022;-0,026;0,033;
20200831_155302;-0,606;4,559;8,171;0,038;0,010;0,105;
20200831_155302;-1,073;4,815;8,760;-0,040;0,048;0,234;
20200831_155302;1,980;4,448;-3,697;-0,011;0,050;-0,078;
20200831_155303;0,924;7,005;11,449;-0,042;-0,060;-0,253;
20200831_155303;-1,561;3,587;-20,925;0,831;0,146;-0,171;
20200831_155303;-0,584;5,016;15,428;0,295;0,015;0,123;
20200831_155303;-2,993;10,958;10,779;0,228;0,147;-0,022;
20200831_155303;-1,221;7,702;7,192;-0,014;0,219;0,097;
20200831_155303;0,323;4,731;7,491;0,090;-0,046;-0,191;
20200831_155303;-1,116;4,810;6,732;-0,015;-0,000;-0,098;
20200831_155303;0,512;5,744;9,464;-0,021;-0,123;0,015;
20200831_155303;0,563;4,022;7,458;0,072;-0,031;-0,065;
20200831_155304;0,132;3,716;9,194;-0,057;-0,001;0,033;
20200831_155304;-0,093;4,336;7,592;-0,023;-0,039;-0,116;
20200831_155304;-0,259;4,848;5,995;-0,069;0,015;0,065;
20200831_155304;-0,393;5,320;8,253;-0,040;-0,067;-0,090;
20200831_155304;-1,381;5,521;9,519;-0,008;0,008;0,128;
20200831_155304;-0,306;4,489;7,034;0,047;-0,039;0,009;
20200831_155304;0,110;4,860;8,878;0,026;-0,043;-0,021;
20200831_155304;-0,804;4,908;8,554;-0,027;-0,008;0,008;
20200831_155304;-0,371;4,209;8,143;-0,050;0,016;-0,080;
20200831_155305;-0,678;3,431;8,973;0,003;0,021;-0,039;
20200831_155305;1,271;5,535;8,231;0,036;-0,021;-0,069;
20200831_155305;-1,037;4,448;8,272;0,018;-0,018;-0,090;
20200831_155305;-1,147;4,755;9,541;0,017;-0,123;0,081;
20200831_155305;-0,893;4,731;14,183;-0,206;-0,109;0,075;
20200831_155305;-1,920;1,336;17,384;-0,231;-0,034;0,148;
20200831_155305;0,867;2,234;6,335;-0,076;-0,138;0,112;
20200831_155305;-0,634;1,568;11,181;-0,020;0,010;0,059;
20200831_155305;-0,646;4,664;7,918;-0,034;-0,020;0,128;
20200831_155305;-1,271;5,375;13,472;-0,012;0,020;0,203;
20200831_155306;-0,129;4,525;6,685;0,119;0,093;0,299;
20200831_155306;-0,713;6,440;8,940;0,087;0,072;0,138;
20200831_155306;-0,757;4,075;7,728;-0,023;0,148;0,332;
20200831_155306;0,570;5,368;7,132;-0,018;0,130;0,167;
20200831_155306;0,951;4,355;7,927;-0,015;0,185;-0,013;
20200831_155306;0,048;3,831;10,195;0,022;0,102;-0,153;
20200831_155306;1,018;3,879;8,159;-0,049;0,110;-0,170;
20200831_155306;-0,417;3,766;9,723;-0,055;0,024;-0,182;
20200831_155306;-0,860;4,664;9,644;0,091;0,041;0,027;
20200831_155307;-0,294;4,329;7,848;-0,017;0,052;0,042;
20200831_155307;-0,043;5,928;6,608;0,006;0,085;-0,006;
20200831_155307;-0,670;4,827;9,809;-0,032;0,013;-0,093;
20200831_155307;0,105;5,363;7,772;0,065;-0,000;-0,114;
20200831_155307;-0,050;4,573;7,628;0,025;-0,044;-0,204;
20200831_155307;-0,373;6,014;8,808;0,039;-0,076;-0,093;
20200831_155307;-1,195;3,869;8,940;-0,012;-0,086;-0,034;
20200831_155307;-0,749;2,933;8,933;-0,054;-0,092;0,059;
20200831_155307;-0,302;4,592;13,803;-0,140;0,042;0,283;
20200831_155308;-0,907;6,783;12,435;0,078;0,053;0,027;
20200831_155308;-0,352;3,407;9,153;-0,004;0,035;-0,042;
20200831_155308;0,038;5,131;9,143;0,052;0,037;-0,125;
20200831_155308;-0,620;5,806;6,819;0,028;0,041;-0,185;
20200831_155308;0,184;4,630;7,532;0,059;-0,081;-0,190;
20200831_155308;-0,266;5,131;8,588;0,015;-0,092;-0,132;
20200831_155308;-0,702;4,611;8,559;0,019;-0,066;0,008;
20200831_155308;-0,024;5,605;8,104;-0,003;-0,050;0,104;
20200831_155308;-0,596;4,779;8,629;0,002;0,001;0,028;
20200831_155309;-2,085;5,981;9,313;0,001;-0,025;0,001;
20200831_155309;-1,003;4,061;6,531;-0,016;-0,047;0,153;
20200831_155309;1,147;4,863;8,681;-0,024;-0,010;0,085;
20200831_155309;-0,960;5,164;7,992;-0,052;-0,041;-0,039;
20200831_155309;0,129;4,515;9,380;-0,038;-0,000;0,062;
20200831_155309;0,828;3,524;9,175;-0,010;0,034;-0,135;
20200831_155309;-0,735;4,058;7,786;0,048;-0,038;-0,156;
20200831_155309;0,060;5,365;8,792;0,020;-0,072;0,047;
20200831_155309;-0,589;5,911;6,639;-0,026;-0,047;0,083;
20200831_155309;-1,635;4,487;7,065;0,006;-0,056;0,268;
20200831_155310;-0,397;4,688;9,136;-0,047;0,016;0,299;
20200831_155310;-0,105;5,705;7,724;0,050;0,101;0,044;
20200831_155310;-0,606;4,144;8,495;0,026;0,084;-0,042;
20200831_155310;1,724;5,329;9,115;-0,020;0,054;-0,086;
20200831_155310;1,719;5,282;7,523;-0,008;-0,033;-0,219;
20200831_155310;-1,865;5,612;9,706;0,013;-0,036;-0,016;
20200831_155310;-0,898;5,449;9,232;0,028;0,053;0,181;
20200831_155310;0,879;4,204;7,853;0,068;-0,022;0,030;
20200831_155310;1,118;4,305;8,801;-0,024;-0,012;0,125;
20200831_155311;-0,642;4,896;6,922;-0,006;0,061;0,096;
20200831_155311;-0,941;3,299;10,841;-0,085;0,037;-0,300;
20200831_155311;4,614;2,835;6,337;0,137;-0,081;-0,292;
20200831_155311;0,192;8,140;9,143;0,071;-0,079;-0,047;
20200831_155311;0,177;5,646;8,957;0,027;-0,055;0,039;
20200831_155311;-1,130;4,436;7,760;-0,045;-0,026;0,128;
20200831_155311;-0,668;2,720;6,000;0,095;0,001;0,238;
20200831_155311;-1,022;0,529;31,304;0,053;0,131;0,301;
20200831_155311;0,354;9,079;4,353;-0,387;0,093;0,094;
20200831_155311;0,010;1,044;11,796;0,080;0,167;-0,153;
20200831_155312;-1,432;8,212;11,772;-0,015;0,115;-0,178;
20200831_155312;-2,583;5,571;2,784;-0,194;-0,118;0,065;
20200831_155312;0,417;-3,713;11,102;0,158;0,116;-0,138;
20200831_155312;-2,875;9,507;11,363;0,109;-0,025;-0,412;
20200831_155312;0,175;5,540;13,142;-0,021;-0,089;-0,134;
20200831_155312;-0,934;3,840;10,374;-0,060;-0,092;0,067;
20200831_155312;0,347;3,551;7,977;-0,037;0,028;-0,052;
20200831_155312;-0,393;3,816;7,503;0,003;0,007;-0,018;
20200831_155312;-0,450;3,685;5,174;-0,018;0,007;0,030;
20200831_155313;-0,769;6,215;6,376;-0,023;0,093;0,061;
20200831_155313;0,215;5,444;7,736;0,064;0,060;-0,105;
20200831_155313;0,244;6,050;7,010;0,013;-0,009;-0,192;
20200831_155313;-0,979;4,164;9,752;-0,065;-0,046;-0,124;
20200831_155313;-0,177;5,940;6,800;-0,020;-0,085;-0,060;
20200831_155313;-0,912;4,743;7,353;0,058;-0,119;-0,070;
20200831_155313;-0,548;4,463;9,749;0,018;-0,121;0,057;
20200831_155313;0,503;6,129;5,344;0,032;-0,107;0,063;
20200831_155313;-0,589;5,516;10,369;0,005;-0,093;-0,028;
20200831_155313;-1,231;3,718;6,364;0,033;-0,022;0,170;
20200831_155314;-0,170;3,124;8,320;-0,057;-0,057;0,232;
20200831_155314;0,984;3,596;11,296;-0,049;0,045;0,095;
20200831_155314;-1,116;6,163;7,266;0,032;0,034;-0,063;
20200831_155314;-1,288;4,731;7,338;0,006;-0,000;0,140;
20200831_155314;0,038;6,115;8,878;0,070;0,008;0,185;
20200831_155314;0,503;4,805;8,404;0,016;0,104;0,120;
20200831_155314;-0,565;5,001;7,520;0,003;0,102;-0,021;
20200831_155314;0,318;3,967;8,636;-0,023;0,077;0,011;
20200831_155314;0,175;5,274;10,427;-0,021;0,108;-0,105;
20200831_155315;1,537;4,982;6,948;0,001;0,002;-0,217;
20200831_155315;-0,826;4,487;9,950;0,012;0,022;-0,123;
20200831_155315;-0,101;4,527;7,439;0,002;-0,045;-0,020;
20200831_155315;-0,139;4,214;6,709;-0,022;-0,042;0,044;
20200831_155315;-0,460;4,027;9,543;-0,024;-0,051;-0,010;
20200831_155315;-1,712;6,017;6,804;0,044;0,004;0,191;
20200831_155315;-1,238;4,463;9,610;-0,043;0,011;0,163;
20200831_155315;0,646;4,867;10,393;-0,023;0,002;0,054;
20200831_155315;-1,106;4,846;8,468;-0,020;0,068;-0,084;
20200831_155316;-0,141;4,381;8,978;-0,035;0,039;-0,091;
20200831_155316;0,986;5,744;6,977;-0,063;-0,026;-0,107;
20200831_155316;0,594;5,581;7,128;-0,029;-0,032;-0,020;
20200831_155316;-0,788;4,640;8,361;0,047;0,010;0,096;
20200831_155316;-0,828;5,521;7,468;0,018;0,017;0,062;
20200831_155316;-0,201;4,554;8,222;0,042;0,050;0,013;
20200831_155316;-0,323;5,734;8,480;0,026;0,026;-0,045;
20200831_155316;-0,615;4,391;6,639;-0,051;0,013;-0,044;
20200831_155316;-1,082;4,166;9,218;-0,011;-0,032;-0,038;
20200831_155316;-0,460;5,069;7,865;0,014;0,007;0,034;
20200831_155317;-0,357;5,114;8,138;0,032;-0,004;-0,028;
20200831_155317;0,069;4,690;8,406;-0,032;-0,017;-0,048;
20200831_155317;-0,306;6,081;7,659;0,003;-0,018;-0,040;
20200831_155317;-0,230;4,408;7,894;0,022;0,020;0,037;
20200831_155317;-0,457;5,102;4,345;0,034;0,002;-0,002;
20200831_155317;-0,249;7,453;9,440;0,029;0,033;-0,001;
20200831_155317;-0,637;8,073;8,803;0,049;0,016;-0,122;
20200831_155317;-0,826;4,755;6,328;-0,114;-0,014;-0,045;
20200831_155317;-0,879;3,881;8,619;-0,021;0,003;0,036;
20200831_155318;-0,728;4,527;9,251;-0,020;0,003;0,009;
20200831_155318;0,127;4,515;7,053;0,039;-0,009;-0,086;
20200831_155318;-0,713;4,664;8,787;0,035;-0,067;-0,096;
20200831_155318;-0,278;5,148;8,080;0,023;-0,065;0,047;
20200831_155318;-0,311;5,437;9,167;-0,055;-0,092;0,046;
20200831_155318;-0,244;5,143;7,482;0,041;0,011;0,113;
20200831_155318;-0,156;5,241;7,580;0,019;0,007;-0,024;
20200831_155318;-0,012;4,681;8,600;0,018;0,017;-0,040;
20200831_155318;-1,135;5,160;9,084;-0,026;0,039;0,031;
20200831_155318;-0,438;4,068;8,231;-0,021;0,025;0,075;
20200831_155319;-0,148;4,190;7,824;-0,022;0,034;0,079;
20200831_155319;-0,247;5,674;9,232;0,000;0,038;-0,012;
20200831_155319;0,630;5,255;8,262;0,051;0,042;-0,023;
20200831_155319;-0,615;4,733;9,579;-0,011;0,020;-0,178;
20200831_155319;0,309;3,917;8,811;0,025;-0,062;-0,223;
20200831_155319;-0,457;3,847;11,135;-0,065;-0,087;-0,106;
20200831_155319;-0,766;5,368;8,595;0,025;-0,087;0,045;
20200831_155319;-1,453;5,294;8,289;0,019;-0,061;0,155;
20200831_155319;-0,584;4,492;5,720;0,011;0,024;0,176;
20200831_155320;0,218;4,446;8,255;-0,004;0,049;0,087;
20200831_155320;-0,567;5,686;8,088;0,029;0,010;-0,008;
20200831_155320;0,055;5,138;8,614;-0,011;0,007;0,108;
20200831_155320;-0,160;4,587;8,327;0,030;0,024;0,072;
20200831_155320;0,587;5,555;7,846;0,042;0,029;-0,068;
20200831_155320;-0,213;4,808;8,377;0,025;-0,028;-0,100;
20200831_155320;-0,450;6,045;9,522;-0,032;0,005;-0,015;
20200831_155320;-0,271;5,325;8,531;-0,004;0,022;-0,031;
20200831_155320;-0,115;4,156;8,078;-0,012;0,073;-0,034;
20200831_155321;-0,366;4,185;7,661;0,013;0,069;-0,058;
20200831_155321;-0,460;4,228;8,349;0,017;0,081;-0,068;
20200831_155321;-0,297;3,711;8,023;0,016;0,061;-0,200;
20200831_155321;-0,661;5,727;7,592;0,007;0,004;-0,197;
20200831_155321;-0,306;3,857;9,242;0,054;-0,025;-0,102;
20200831_155321;-0,551;5,842;8,598;0,027;-0,093;-0,123;
20200831_155321;-0,345;3,891;9,203;0,021;-0,046;-0,040;
20200831_155321;-0,766;4,767;10,707;0,018;-0,110;-0,102;
20200831_155321;-0,098;4,575;7,575;-0,003;-0,080;-0,033;
20200831_155322;0,311;4,003;8,351;0,001;-0,090;-0,059;
20200831_155322;0,053;3,388;7,824;0,010;-0,051;-0,075;
20200831_155322;-0,749;4,547;9,203;0,030;-0,119;-0,094;
20200831_155322;-0,874;6,795;7,942;0,055;-0,066;0,135;
20200831_155322;-0,706;4,334;8,380;0,000;-0,064;0,139;
20200831_155322;-0,273;5,023;6,507;0,042;0,070;0,259;
20200831_155322;-0,096;5,095;9,627;0,018;-0,032;-0,121;
20200831_155322;-1,369;4,549;8,708;0,041;-0,128;-0,090;
20200831_155322;-0,735;3,199;8,456;-0,049;-0,150;0,319;
20200831_155323;1,302;6,335;5,938;-0,028;-0,091;0,286;
20200831_155323;0,110;5,480;9,867;-0,014;0,037;0,045;
20200831_155323;0,292;2,373;10,484;0,059;0,091;-0,074;
20200831_155323;-1,647;4,393;10,118;0,038;0,055;-0,055;
20200831_155323;-0,350;4,633;7,250;-0,017;0,040;0,160;
20200831_155323;-0,845;4,683;11,459;-0,063;0,085;0,239;
20200831_155323;-0,850;6,179;7,041;-0,011;0,090;0,123;
20200831_155323;-1,018;4,264;9,409;-0,001;0,082;0,016;
20200831_155323;0,256;3,807;6,986;0,050;0,045;-0,013;
20200831_155323;-0,924;3,687;7,815;-0,043;0,104;0,005;
20200831_155324;-1,968;4,604;4,484;0,081;0,091;-0,234;
20200831_155324;0,534;7,803;3,996;0,015;0,077;0,010;
20200831_155324;-0,400;11,083;11,265;0,193;0,198;-0,323;
20200831_155324;-0,141;17,068;4,815;0,227;-0,065;-0,074;
20200831_155324;-0,256;1,046;6,237;-0,251;-0,018;0,049;
20200831_155324;-0,409;5,418;6,467;-0,070;0,086;0,111;
20200831_155324;0,139;3,086;7,673;0,095;0,011;-0,109;
20200831_155324;0,151;4,791;7,858;0,003;-0,047;-0,008;
20200831_155324;-0,682;6,120;8,291;0,088;-0,020;0,048;
20200831_155325;0,261;4,942;8,016;0,080;-0,053;-0,025;
20200831_155325;-0,852;4,403;7,343;0,022;-0,050;-0,017;
20200831_155325;-0,239;5,148;7,027;0,004;-0,082;0,067;
20200831_155325;-0,481;4,413;11,286;-0,046;-0,006;0,051;
20200831_155325;0,122;4,499;10,472;0,031;-0,062;-0,058;
20200831_155325;-0,826;2,234;7,238;-0,014;-0,042;0,016;
20200831_155325;-1,142;4,626;13,726;-0,051;-0,057;0,145;
20200831_155325;1,243;3,373;18,347;-0,105;-0,118;0,526;
20200831_155325;1,858;5,361;-3,309;-0,089;0,105;0,129;
20200831_155325;0,436;6,153;10,240;-0,243;0,143;0,029;
20200831_155326;0,086;3,242;2,646;-0,469;0,041;-0,136;
20200831_155326;-0,551;2,394;7,147;-0,124;0,061;0,043;
20200831_155326;1,183;12,151;5,076;0,188;0,089;-0,065;
20200831_155326;0,658;1,772;11,648;0,021;-0,072;-0,017;
20200831_155326;-1,039;0,548;20,358;-0,182;0,069;0,094;
20200831_155326;1,990;5,179;6,402;0,070;0,092;-0,158;
20200831_155326;-2,157;3,438;9,819;-0,057;0,094;-0,006;
20200831_155326;-0,974;6,479;5,650;-0,046;0,008;-0,120;
20200831_155326;-0,230;4,099;8,813;0,003;0,089;-0,008;
20200831_155327;-0,268;3,194;8,693;-0,047;0,006;-0,156;
20200831_155327;-0,725;4,992;10,281;-0,019;0,031;-0,199;
20200831_155327;-1,092;8,059;12,943;-0,324;-0,000;-0,190;
20200831_155327;0,769;2,428;12,562;-0,223;-0,113;-0,096;
20200831_155327;1,769;-4,159;3,831;-0,142;-0,102;-0,235;
20200831_155327;-0,338;2,425;7,939;-0,154;-0,219;-0,096;
20200831_155327;1,618;5,155;-3,400;0,316;-0,163;0,095;
20200831_155327;0,340;1,185;13,762;0,015;-0,125;0,315;
20200831_155327;0,749;5,543;9,495;0,212;-0,029;0,120;
20200831_155328;-0,948;-2,952;14,229;-0,108;0,043;0,099;
20200831_155328;-0,103;7,319;20,085;-0,260;0,081;0,023;
20200831_155328;-1,319;8,756;12,060;-0,047;0,129;-0,083;
20200831_155328;0,072;-0,354;8,162;-0,283;0,010;-0,169;
20200831_155328;-0,127;4,884;15,158;-0,173;-0,008;-0,037;
20200831_155328;-1,523;12,670;8,387;0,678;0,072;0,018;
20200831_155328;1,166;4,805;7,321;-0,043;-0,077;-0,122;
20200831_155328;-3,414;2,219;16,226;-0,077;-0,209;0,017;
20200831_155328;1,350;0,151;3,646;0,084;0,005;0,077;
20200831_155328;-0,127;6,732;7,360;0,397;-0,055;0,020;
20200831_155329;1,247;9,957;-8,104;0,001;-0,029;0,176;
20200831_155329;-0,836;5,581;7,391;-0,092;0,088;-0,021;
20200831_155329;-1,860;1,853;7,733;-0,154;0,054;-0,074;
20200831_155329;-0,690;4,836;6,065;-0,022;0,009;0,037;
20200831_155329;-0,579;4,970;8,677;0,029;-0,040;0,023;
20200831_155329;-0,838;2,528;6,388;0,055;-0,039;0,076;
20200831_155329;-1,958;2,157;7,836;-0,095;0,010;0,367;
20200831_155329;1,197;8,772;9,146;-0,035;0,041;0,159;
20200831_155329;1,003;2,765;-0,783;0,039;0,051;-0,034;
20200831_155330;0,867;-1,190;2,957;-0,185;-0,024;0,047;
20200831_155330;-1,377;5,440;11,918;0,029;0,119;-0,006;
20200831_155330;0,359;11,013;-0,057;0,407;-0,075;-0,137;
20200831_155330;1,353;2,251;-5,006;0,298;0,008;-0,048;
20200831_155330;-1,595;2,574;9,258;0,156;0,031;-0,088;
20200831_155330;-0,864;14,279;8,916;-0,228;-0,055;0,140;
20200831_155330;-3,792;1,077;11,937;-0,187;0,041;-0,075;
20200831_155330;0,022;2,313;8,794;0,142;0,028;0,007;
20200831_155330;-1,068;0,486;7,714;0,023;-0,075;0,069;
20200831_155330;-1,690;-2,428;10,439;-0,239;0,088;0,279;
20200831_155331;0,500;4,994;3,970;-0,026;0,103;0,080;
20200831_155331;1,068;3,455;3,055;0,210;0,025;-0,283;
20200831_155331;-1,003;3,692;6,244;0,282;-0,055;-0,119;
20200831_155331;0,826;5,940;6,989;0,186;-0,073;-0,083;
20200831_155331;-1,882;3,254;6,572;0,154;0,018;-0,176;
20200831_155331;-1,573;9,459;5,195;-0,050;-0,031;0,102;
20200831_155331;-0,819;4,487;12,335;-0,067;-0,062;0,241;
20200831_155331;-0,505;4,446;24,306;-0,102;0,040;0,087;
20200831_155331;-0,699;8,382;5,476;0,160;0,028;-0,072;
20200831_155332;-1,990;-4,027;12,263;-0,156;-0,016;0,156;
20200831_155332;-0,338;7,219;6,606;0,157;0,086;0,360;
20200831_155332;-0,393;1,961;16,036;-0,121;0,059;-0,145;
20200831_155332;-1,367;5,997;7,764;0,137;0,125;-0,129;
20200831_155332;-1,257;-1,468;5,466;-0,282;-0,187;0,075;
20200831_155332;-2,023;1,595;12,507;-0,068;-0,032;-0,001;
20200831_155332;-0,060;2,756;5,705;0,039;0,016;-0,076;
20200831_155332;0,977;2,385;6,900;-0,256;0,008;0,109;
20200831_155332;-0,359;3,972;9,855;-0,182;0,044;0,014;
20200831_155332;0,951;5,442;-0,883;0,308;0,089;-0,036;
20200831_155333;-1,018;4,456;9,309;0,162;0,038;-0,072;
20200831_155333;-0,472;6,845;3,883;0,163;0,054;-0,071;
20200831_155333;-1,523;5,013;8,363;-0,065;0,057;-0,006;
20200831_155333;-1,451;4,197;8,612;-0,099;-0,004;-0,116;
20200831_155333;1,970;3,000;4,185;-0,032;-0,065;-0,155;
20200831_155333;-0,579;5,796;4,829;0,146;-0,114;-0,149;
20200831_155333;-0,704;5,294;5,914;0,176;-0,058;0,226;
20200831_155333;0,740;1,894;6,958;-0,068;0,022;0,167;
20200831_155333;0,333;3,077;9,574;-0,021;0,036;-0,166;
20200831_155334;-3,079;7,683;7,257;0,133;0,108;-0,217;
20200831_155334;0,235;7,491;8,279;0,119;-0,122;-0,371;
20200831_155334;-1,276;5,219;9,050;-0,014;-0,112;-0,002;
20200831_155334;-1,855;4,197;5,356;0,036;-0,049;0,276;
20200831_155334;-0,072;3,227;6,292;-0,026;-0,103;0,197;
20200831_155334;-0,860;3,874;1,911;0,181;0,044;0,185;
20200831_155334;1,642;5,152;1,638;0,169;0,015;0,043;
20200831_155334;-3,153;7,693;12,852;-0,215;0,042;-0,010;
20200831_155334;-0,026;3,558;10,695;-0,044;-0,045;0,039;
20200831_155334;2,236;2,684;4,590;-0,017;-0,030;0,058;
20200831_155335;-0,979;5,133;14,906;-0,124;0,064;0,004;
20200831_155335;-0,017;9,991;11,171;-0,500;-0,026;-0,120;
20200831_155335;0,649;2,710;9,033;-0,256;-0,012;-0,127;
20200831_155335;0,010;3,771;7,898;-0,299;-0,041;-0,049;
20200831_155335;0,558;8,176;6,835;0,227;0,029;-0,047;
20200831_155335;-1,609;5,080;2,380;0,179;-0,000;-0,026;
20200831_155335;-0,809;6,522;10,312;-0,301;0,013;-0,002;
20200831_155335;-1,580;1,602;8,373;0,000;-0,077;0,164;
20200831_155335;-0,381;5,847;6,539;0,257;0,055;0,032;
20200831_155336;-1,446;2,844;10,252;-0,109;0,009;-0,102;
20200831_155336;-0,754;4,080;4,329;0,004;-0,017;-0,083;
20200831_155336;0,024;9,783;9,060;-0,084;-0,018;-0,048;
20200831_155336;-0,599;4,934;11,167;-0,066;-0,001;-0,047;
20200831_155336;0,579;7,501;2,011;0,071;-0,059;-0,050;
20200831_155336;-0,615;1,575;2,995;0,169;-0,055;0,049;
20200831_155336;0,491;8,662;4,027;0,086;0,022;0,097;
20200831_155336;-0,941;4,259;6,086;-0,156;0,050;-0,093;
20200831_155336;-0,462;0,014;10,518;-0,162;-0,013;0,071;
20200831_155336;-0,275;7,343;10,906;0,005;0,058;0,174;
20200831_155337;0,668;4,966;4,305;-0,007;0,056;0,010;
20200831_155337;-0,785;2,083;7,898;-0,108;0,056;-0,171;
20200831_155337;-1,080;-2,191;16,293;-0,370;-0,053;-0,076;
20200831_155337;-0,467;2,763;5,071;0,104;-0,011;0,045;
20200831_155337;1,377;4,293;6,572;-0,212;-0,038;-0,101;
20200831_155337;-0,182;1,681;4,855;-0,070;-0,023;0,008;
20200831_155337;0,297;4,666;7,884;0,055;-0,064;-0,049;
20200831_155337;-1,425;4,101;14,806;0,005;-0,025;0,067;
20200831_155337;-0,809;11,765;4,341;-0,028;-0,017;0,058;
20200831_155338;-1,630;7,403;6,993;-0,129;0,028;0,171;
20200831_155338;-1,197;-0,259;5,066;-0,239;0,023;0,191;
20200831_155338;1,319;4,578;5,215;-0,001;0,093;0,024;
20200831_155338;1,475;5,837;-2,274;0,133;0,041;-0,222;
20200831_155338;-1,140;4,302;11,674;0,071;0,037;-0,200;
20200831_155338;-0,905;10,063;-0,077;0,292;-0,007;0,011;
20200831_155338;-1,132;6,244;12,955;-0,046;0,035;0,000;
20200831_155338;-0,757;0,419;12,675;0,179;0,059;0,109;
20200831_155338;0,256;-2,993;9,819;-0,016;0,065;-0,039;
20200831_155339;0,634;-0,132;11,832;-0,350;0,042;-0,017;
20200831_155339;0,438;9,239;3,706;0,081;0,015;-0,217;
20200831_155339;-0,862;12,371;5,148;0,291;0,035;-0,186;
20200831_155339;-1,642;3,328;14,602;-0,069;-0,008;-0,088;
20200831_155339;-0,316;5,459;13,374;-0,366;-0,132;-0,076;
20200831_155339;-2,095;11,382;13,099;-0,219;-0,020;0,076;
20200831_155339;2,770;-1,377;7,391;-0,047;-0,196;0,024;
20200831_155339;-1,774;8,317;13,250;0,081;-0,040;0,095;
20200831_155339;0,005;8,155;5,452;0,121;-0,036;-0,120;
20200831_155339;0,132;4,580;10,460;-0,070;-0,065;-0,037;
20200831_155340;-1,049;2,933;9,038;-0,067;0,032;0,073;
20200831_155340;-1,082;8,009;8,554;-0,010;-0,004;0,148;
20200831_155340;-0,649;7,628;3,694;0,082;0,076;0,126;
20200831_155340;-1,214;7,520;2,112;-0,002;0,022;-0,139;
20200831_155340;-0,998;3,199;3,694;0,076;-0,043;-0,043;
20200831_155340;-0,682;8,622;5,823;-0,032;-0,030;0,085;
20200831_155340;-0,910;4,757;15,646;-0,086;-0,034;-0,032;
20200831_155340;-1,362;7,745;12,237;-0,272;-0,131;0,090;
20200831_155340;1,755;-2,155;7,460;-0,252;-0,109;0,195;
20200831_155340;0,266;1,745;10,278;-0,246;-0,018;0,195;
20200831_155341;-2,605;10,357;10,511;-0,031;0,198;0,163;
20200831_155341;-0,065;4,906;6,397;0,157;0,169;0,026;
20200831_155341;-0,436;2,557;11,657;-0,193;0,224;-0,122;
20200831_155341;0,069;6,977;8,799;0,095;0,208;-0,339;
20200831_155341;-0,560;5,064;9,136;0,074;0,069;-0,367;
20200831_155341;-0,960;5,677;8,068;0,149;-0,181;-0,411;
20200831_155341;-3,084;5,933;10,503;0,000;-0,139;0,135;
20200831_155341;0,065;5,665;9,634;-0,108;-0,151;0,188;
20200831_155341;-1,008;3,828;13,427;-0,141;-0,119;0,147;
20200831_155342;1,008;5,289;9,005;0,047;0,078;0,236;
20200831_155342;3,108;-0,206;2,713;0,179;0,012;-0,199;
20200831_155342;-1,391;7,633;12,016;-0,212;0,090;-0,273;
20200831_155342;-3,201;15,081;7,410;0,268;0,007;-0,169;
20200831_155342;0,259;0,759;10,238;-0,030;-0,082;0,049;
20200831_155342;-0,517;5,152;12,919;0,124;0,023;0,120;
20200831_155342;-0,936;5,401;5,758;-0,056;0,048;0,097;
20200831_155342;1,307;5,966;6,086;-0,340;0,036;0,016;
20200831_155342;0,287;7,910;11,880;0,012;-0,014;-0,146;
20200831_155343;-0,476;0,294;18,608;0,261;-0,059;-0,167;
20200831_155343;-1,899;7,013;7,906;0,210;-0,009;0,047;
20200831_155343;0,735;-2,677;20,200;-0,340;-0,053;-0,142;
20200831_155343;-0,773;7,525;14,856;0,006;-0,074;-0,174;
20200831_155343;0,182;2,744;8,851;-0,256;-0,017;0,170;
20200831_155343;0,594;2,356;7,721;-0,196;-0,054;-0,019;
20200831_155343;-0,421;4,958;8,112;0,092;0,029;0,051;
20200831_155343;-1,267;7,954;3,757;0,192;0,016;-0,002;
20200831_155343;-1,120;5,909;1,472;-0,071;-0,039;0,020;
20200831_155343;-1,125;8,655;16,640;-0,173;0,025;0,222;
20200831_155344;2,528;8,581;-2,090;0,033;-0,066;-0,066;
20200831_155344;1,070;2,763;0,958;-0,215;0,094;-0,135;
20200831_155344;-1,046;9,625;1,350;0,239;0,141;-0,004;
20200831_155344;2,150;12,091;2,195;-0,026;-0,080;-0,179;
20200831_155344;-0,462;0,972;12,364;0,013;-0,023;-0,017;
20200831_155344;-0,488;10,862;12,191;0,189;-0,088;0,041;
20200831_155344;-1,355;0,558;18,033;-0,164;-0,047;0,328;
20200831_155344;1,623;6,701;13,302;-0,536;0,048;0,339;
20200831_155344;-1,039;0,994;9,038;-0,150;0,190;-0,035;
20200831_155345;-1,501;0,879;8,152;-0,224;0,084;-0,202;
20200831_155345;-0,620;4,463;9,349;0,032;-0,005;-0,205;
20200831_155345;1,094;6,823;5,057;-0,059;0,007;-0,103;
20200831_155345;-0,268;0,634;7,671;-0,180;-0,108;-0,043;
20200831_155345;-0,359;7,623;6,914;0,063;-0,030;0,049;
20200831_155345;-0,304;3,417;14,257;0,030;-0,007;-0,008;
20200831_155345;1,331;4,085;7,309;0,007;-0,033;-0,074;
20200831_155345;-0,927;3,033;9,005;0,021;-0,000;-0,008;
20200831_155345;-0,323;6,354;11,100;-0,215;0,003;0,018;
20200831_155345;-1,152;3,869;9,620;-0,082;0,100;0,082;
20200831_155346;-0,670;5,325;11,303;-0,091;0,143;0,201;
20200831_155346;0,814;0,730;13,606;-0,112;0,055;-0,093;
20200831_155346;-0,220;2,186;9,345;0,036;0,053;-0,258;
20200831_155346;0,261;1,262;0,646;-0,036;-0,058;-0,132;
20200831_155346;-1,221;4,398;6,407;-0,002;-0,093;-0,136;
20200831_155346;-0,788;12,972;7,362;-0,056;-0,070;-0,003;
20200831_155346;-0,486;2,945;5,986;-0,033;-0,100;0,300;
20200831_155346;-0,232;2,301;7,903;-0,262;-0,074;0,024;
20200831_155346;0,620;6,460;12,069;0,018;-0,028;0,048;
20200831_155347;0,795;1,918;7,099;0,120;0,010;-0,029;
20200831_155347;-0,601;0,939;21,689;-0,086;0,071;0,026;
20200831_155347;-0,146;4,243;10,934;0,037;0,002;0,075;
20200831_155347;-0,565;-2,512;9,807;-0,320;-0,014;-0,169;
20200831_155347;0,311;5,200;16,467;-0,081;-0,023;-0,174;
20200831_155347;-1,022;5,171;8,734;-0,145;-0,051;0,032;
20200831_155347;-0,318;1,058;9,234;0,072;-0,081;0,049;
20200831_155347;-2,368;10,092;12,780;0,019;0,058;0,206;
20200831_155347;1,080;8,384;4,808;0,167;-0,009;-0,109;
20200831_155347;1,056;-1,331;8,193;0,031;-0,003;0,034;
20200831_155348;-0,467;8,748;-0,462;0,257;-0,003;0,057;
20200831_155348;-0,771;6,998;7,563;-0,026;0,037;0,027;
20200831_155348;-1,015;5,195;6,510;0,038;0,069;-0,006;
20200831_155348;-0,699;0,630;6,881;-0,053;0,028;-0,009;
20200831_155348;-0,836;4,937;-5,737;0,193;-0,025;-0,060;
20200831_155348;-0,441;-1,252;8,842;-0,391;0,041;-0,156;
20200831_155348;-2,176;9,431;7,082;0,235;0,031;-0,228;
20200831_155348;-0,280;4,286;14,346;-0,064;-0,036;0,030;
20200831_155348;-0,376;3,883;3,491;0,034;-0,028;-0,040;
20200831_155349;0,139;2,787;1,784;0,149;-0,076;0,006;
20200831_155349;-1,767;7,626;7,393;0,067;-0,014;0,088;
20200831_155349;-0,891;4,348;4,061;0,100;0,041;0,192;
20200831_155349;-0,814;6,704;0,098;0,128;0,075;0,036;
20200831_155349;-0,800;2,174;13,357;0,041;0,076;-0,048;
20200831_155349;0,596;5,624;12,747;-0,109;-0,001;-0,121;
20200831_155349;-0,141;1,113;11,169;-0,109;-0,040;-0,169;
20200831_155349;-0,498;3,977;6,752;0,100;-0,037;-0,010;
20200831_155349;0,766;3,266;6,067;-0,081;-0,059;0,114;
20200831_155350;0,857;6,160;-0,486;0,192;-0,053;-0,100;
20200831_155350;0,486;10,135;13,743;-0,177;-0,126;-0,120;
20200831_155350;-2,368;4,463;13,273;-0,098;-0,046;0,172;
20200831_155350;-0,077;2,555;3,361;0,034;0,059;0,304;
20200831_155350;0,654;5,279;1,144;0,275;0,094;-0,026;
20200831_155350;-0,256;7,913;12,273;-0,014;0,106;-0,163;
20200831_155350;-0,204;1,413;3,666;0,271;0,002;-0,234;
20200831_155350;-1,341;3,677;4,671;0,126;0,049;0,033;
20200831_155350;0,474;4,594;10,558;0,061;0,026;0,009;
20200831_155351;-1,288;9,203;9,448;0,075;-0,045;-0,183;
20200831_155351;0,254;5,411;20,020;-0,071;-0,036;-0,063;
20200831_155351;-1,173;2,260;13,867;-0,067;-0,070;-0,004;
20200831_155351;0,622;5,464;10,422;0,079;-0,051;-0,013;
20200831_155351;-0,871;1,511;5,868;0,001;-0,089;-0,027;
20200831_155351;-1,482;7,733;10,628;0,108;0,013;0,275;
20200831_155351;-0,335;6,017;9,503;0,060;0,078;0,245;
20200831_155351;-0,484;6,582;9,163;-0,035;0,171;0,036;
20200831_155351;-0,237;5,205;6,658;-0,097;0,147;-0,085;
20200831_155351;0,261;-0,754;-0,156;-0,169;0,115;-0,071;
20200831_155352;0,546;6,031;7,946;-0,089;0,078;-0,334;
20200831_155352;0,895;9,364;7,527;-0,004;0,020;-0,407;
20200831_155352;-1,451;3,610;10,594;0,175;-0,169;-0,486;
20200831_155352;-2,081;2,052;5,045;-0,065;-0,141;0,063;
20200831_155352;-0,998;5,344;10,333;-0,157;-0,072;0,122;
20200831_155352;0,723;8,487;4,365;0,063;0,011;0,077;
20200831_155352;0,369;-0,840;26,355;0,330;0,082;-0,142;
20200831_155352;0,579;-0,769;10,163;0,016;-0,012;-0,032;
20200831_155352;-0,804;-14,854;41,966;0,976;0,238;-0,118;
20200831_155353;-0,871;6,871;13,271;-2,438;-0,186;-0,130;
20200831_155353;1,144;-1,499;24,529;-0,312;-0,106;-0,141;
20200831_155353;-0,474;-8,167;19,008;0,594;-0,005;-0,123;
20200831_155353;-0,742;7,707;-10,149;-0,266;-0,012;0,147;
20200831_155353;-1,561;8,806;8,413;0,115;0,009;-0,116;
20200831_155353;0,457;-1,642;16,692;0,165;-0,009;-0,191;
20200831_155353;1,058;-7,412;3,639;-0,214;-0,056;-0,427;
20200831_155353;-1,719;5,102;11,399;-0,171;-0,004;-0,299;
20200831_155353;0,144;1,693;-0,725;0,243;-0,150;-0,222;
20200831_155353;-0,723;8,504;6,601;-0,067;-0,054;-0,104;
20200831_155354;-3,201;3,433;12,960;-0,508;-0,119;-0,238;
20200831_155354;-1,614;21,433;0,302;0,183;-0,022;-0,234;
20200831_155354;0,747;-2,926;3,543;0,119;-0,179;-0,323;
20200831_155354;-0,441;3,342;10,664;-0,177;-0,126;-0,247;
20200831_155354;-0,302;5,248;9,143;0,070;-0,155;-0,430;
20200831_155354;-0,536;5,090;8,581;0,036;-0,181;-0,253;
20200831_155354;-0,026;5,602;14,116;0,130;-0,177;-0,282;
20200831_155354;-0,529;2,284;7,386;0,023;-0,223;-0,217;
20200831_155354;-0,857;3,469;12,919;-0,055;-0,211;-0,023;
20200831_155355;-0,402;5,413;8,188;-0,023;-0,236;0,064;
20200831_155355;-0,577;3,409;8,181;-0,110;-0,164;0,119;
20200831_155355;-1,470;10,558;6,440;0,441;-0,104;0,074;
20200831_155355;-0,850;4,662;-10,460;0,349;-0,043;0,037;
20200831_155355;-0,493;-11,480;8,794;-0,724;-0,005;0,079;
20200831_155355;-0,792;17,229;8,370;-0,032;0,107;-0,225;
20200831_155355;-0,115;9,299;9,819;0,160;-0,069;-0,293;
20200831_155355;0,148;5,478;8,380;0,063;-0,126;-0,254;
20200831_155355;-0,443;4,666;9,158;0,060;-0,112;-0,167;
20200831_155356;-1,583;4,013;9,369;-0,039;-0,054;0,108;
20200831_155356;-0,022;4,695;7,989;-0,043;-0,015;0,107;
20200831_155356;0,314;4,889;8,095;-0,023;0,035;-0,029;
20200831_155356;0,419;4,990;9,474;-0,020;0,003;-0,214;
20200831_155356;0,098;5,655;7,506;0,015;0,008;-0,220;
20200831_155356;-0,594;5,030;7,367;0,092;-0,057;-0,292;
20200831_155356;-0,910;3,385;10,463;-0,018;-0,115;-0,282;
20200831_155356;-0,378;5,272;7,214;0,083;-0,143;-0,284;
20200831_155356;-0,790;6,043;7,389;0,136;-0,143;-0,052;
20200831_155356;-0,316;3,479;9,869;-0,034;-0,205;-0,070;
20200831_155357;-0,584;0,338;14,061;-0,098;-0,072;0,271;
20200831_155357;0,409;-0,912;29,511;0,297;0,021;0,070;
20200831_155357;1,161;16,144;6,934;0,425;0,110;-0,047;
20200831_155357;-1,401;9,414;2,765;0,283;0,104;-0,394;
20200831_155357;-0,826;7,597;6,977;-0,050;0,111;-0,341;
20200831_155357;1,377;4,013;9,055;-0,024;-0,042;-0,477;
20200831_155357;-0,170;3,505;6,833;0,124;-0,148;-0,610;
20200831_155357;-1,547;7,752;6,488;0,167;-0,293;-0,498;
20200831_155357;-0,464;1,932;8,643;-0,018;-0,257;0,005;
20200831_155358;0,153;4,065;7,695;-0,095;-0,219;0,176;
20200831_155358;0,769;6,215;7,049;0,019;-0,111;-0,017;
20200831_155358;-0,575;4,463;7,657;0,103;-0,065;-0,182;
20200831_155358;-1,070;3,886;9,524;-0,039;-0,111;-0,091;
20200831_155358;-0,862;4,611;7,942;-0,013;-0,044;0,038;
20200831_155358;-0,907;6,412;7,075;0,043;-0,048;-0,102;
20200831_155358;-0,802;4,630;8,698;0,019;-0,039;-0,140;
20200831_155358;-0,247;4,288;8,701;-0,021;-0,021;-0,164;
20200831_155358;-0,656;5,478;6,922;0,013;-0,077;-0,278;
20200831_155359;0,883;4,511;8,437;0,068;-0,175;-0,270;
20200831_155359;-1,640;4,987;9,692;0,063;-0,162;-0,204;
20200831_155359;-0,488;5,756;6,112;0,062;-0,234;-0,077;
20200831_155359;-0,800;5,025;13,688;0,000;-0,178;0,033;
20200831_155359;0,450;3,649;7,949;-0,013;-0,199;0,075;
20200831_155359;-1,255;6,634;8,294;0,078;-0,099;0,080;
20200831_155359;-0,424;4,736;7,223;0,006;-0,054;0,141;
20200831_155359;0,687;9,172;5,892;-0,376;0,003;0,192;
20200831_155359;-0,134;4,503;3,536;0,112;0,056;0,081;
20200831_155359;1,721;5,516;10,690;-0,181;-0,028;-0,090;
20200831_155400;-0,168;4,446;7,041;-0,053;0,010;-0,152;
20200831_155400;-1,221;5,552;6,857;-0,040;0,024;-0,058;
20200831_155400;-0,271;5,363;5,413;0,114;-0,059;-0,090;
20200831_155400;-0,448;4,913;8,684;0,053;-0,046;-0,029;
20200831_155400;-0,725;2,495;9,347;-0,052;-0,024;-0,037;
20200831_155400;-0,522;4,290;7,312;-0,027;-0,069;-0,052;
20200831_155400;0,455;4,460;8,799;-0,070;-0,047;0,037;
20200831_155400;-0,642;4,764;9,340;-0,031;-0,005;-0,011;
20200831_155400;0,479;4,630;9,361;0,018;-0,038;-0,048;
20200831_155401;-0,927;5,308;9,438;0,029;0,012;-0,082;
20200831_155401;-0,249;4,757;8,760;0,113;-0,047;-0,061;
20200831_155401;-0,232;4,616;8,808;-0,012;0,018;0,007;
20200831_155401;-0,874;5,054;9,385;-0,065;0,010;-0,096;
20200831_155401;0,661;5,133;10,812;-0,001;-0,079;-0,150;
20200831_155401;-0,584;5,629;7,898;0,056;-0,022;-0,033;
20200831_155401;-0,235;3,749;6,191;-0,052;-0,099;-0,211;
20200831_155401;-0,366;3,977;7,611;0,076;-0,176;-0,262;
20200831_155401;-1,350;6,213;9,864;0,017;-0,210;0,015;
20200831_155402;-0,563;3,953;8,631;-0,036;-0,286;0,197;
20200831_155402;-1,532;5,397;7,197;-0,017;-0,140;0,575;
20200831_155402;-0,587;6,522;8,827;0,051;-0,006;0,539;
20200831_155402;0,376;7,130;6,237;-0,019;0,096;0,319;
20200831_155402;0,503;4,930;7,357;-0,110;0,099;0,251;
20200831_155402;-3,000;8,842;16,779;-0,202;0,184;0,189;
20200831_155402;1,889;1,247;-0,725;0,194;0,057;0,167;
20200831_155402;-0,065;-3,917;28,024;1,061;0,230;-0,011;
20200831_155402;1,322;3,333;5,205;0,019;0,027;0,059;
20200831_155402;-0,613;10,908;9,428;-0,016;0,170;0,303;
20200831_155403;0,642;0,189;8,492;-0,159;0,083;0,091;
20200831_155403;-1,334;4,951;22,017;-0,130;0,196;0,183;
20200831_155403;-0,335;-2,789;11,760;-0,191;0,017;-0,105;
20200831_155403;0,036;10,001;-0,833;0,304;0,116;-0,003;
20200831_155403;-0,359;-4,223;14,583;-0,262;0,019;-0,015;
20200831_155403;-0,338;2,234;15,941;-0,265;-0,055;0,050;
20200831_155403;-0,761;3,002;5,562;-0,061;0,015;0,353;
20200831_155403;-0,156;6,062;-1,089;-0,272;-0,018;0,263;
20200831_155403;-0,893;0,177;10,161;0,081;0,202;0,261;
20200831_155404;-0,733;7,233;9,491;0,026;0,099;0,207;
20200831_155404;1,221;2,607;18,148;-0,060;0,044;0,354;
20200831_155404;-4,092;4,293;3,127;0,190;0,032;0,098;
20200831_155404;4,451;-2,406;11,468;-0,217;-0,086;0,664;
20200831_155404;-0,907;4,453;6,855;0,014;0,179;0,416;
20200831_155404;-0,527;2,253;10,467;-0,029;0,126;0,542;
20200831_155404;-0,022;5,095;5,665;0,132;0,174;0,458;
20200831_155404;2,210;3,105;9,100;0,058;0,147;0,274;
20200831_155404;-0,010;2,387;11,928;0,054;0,227;0,206;
20200831_155405;-0,340;4,604;10,479;-0,005;0,126;0,138;
20200831_155405;-0,706;4,434;5,820;0,095;0,070;0,195;
20200831_155405;0,639;5,708;11,068;-0,060;0,165;0,466;
20200831_155405;-0,170;7,958;-0,584;0,002;0,230;0,284;
20200831_155405;0,702;10,123;-20,648;0,160;0,207;0,461;
20200831_155405;3,024;17,923;29,564;-1,222;0,515;0,304;
20200831_155405;-2,188;-9,677;8,784;-0,517;0,415;-0,279;
20200831_155405;4,774;45,198;-12,833;1,331;0,233;0,038;
20200831_155405;-5,444;7,386;7,736;-0,047;0,033;-0,497;
20200831_155405;-0,565;3,950;8,578;0,136;0,047;0,018;
20200831_155406;0,452;3,472;10,429;-0,136;-0,006;-0,024;
20200831_155406;-1,159;5,284;10,302;-0,131;0,054;0,368;
20200831_155406;1,058;5,136;4,736;0,250;0,012;0,296;
20200831_155406;-0,934;6,036;7,415;0,046;0,049;0,341;
20200831_155406;-0,393;-2,638;14,234;-0,291;0,140;0,388;
20200831_155406;-1,630;4,027;9,924;0,031;0,224;0,420;
20200831_155406;-0,948;2,885;10,889;0,153;0,008;0,295;
20200831_155406;-2,021;4,743;9,194;0,064;0,502;1,313;
20200831_155406;5,516;5,152;0,031;0,267;-0,045;1,562;
20200831_155407;-4,274;6,701;9,543;0,435;0,709;0,782;
20200831_155407;5,085;0,785;5,531;0,133;0,385;-2,294;
20200831_155407;-5,806;6,835;6,692;0,202;-0,392;-1,826;
20200831_155407;-4,233;4,647;9,234;-0,185;-0,257;-0,118;
20200831_155407;-0,129;3,110;13,012;-0,031;-0,200;0,547;
20200831_155407;-5,643;3,227;8,811;-0,126;0,138;1,155;
20200831_155407;2,942;1,975;8,399;0,049;-0,125;0,424;
20200831_155407;2,028;4,810;6,416;0,068;0,164;0,738;
20200831_155407;-2,164;0,345;8,296;-0,049;0,100;0,230;
20200831_155407;0,144;3,050;10,168;0,080;0,187;0,617;
20200831_155408;6,105;7,089;7,345;-0,001;0,320;0,860;
20200831_155408;2,497;4,001;9,088;0,084;0,337;0,030;
20200831_155408;0,084;1,255;10,187;0,003;0,232;-0,638;
20200831_155408;-0,469;4,353;9,831;-0,010;-0,013;-0,720;
20200831_155408;0,699;6,237;6,086;0,103;-0,159;-0,857;
20200831_155408;-0,206;3,230;9,325;0,050;-0,265;-1,006;
20200831_155408;-2,399;4,712;7,932;0,017;-0,275;-0,458;
20200831_155408;-3,187;6,254;7,788;-0,001;-0,087;0,601;
20200831_155408;-1,046;4,640;7,884;-0,014;0,067;1,505;
20200831_155409;-0,285;5,334;8,516;-0,028;0,315;1,574;
20200831_155409;1,654;5,466;7,365;0,002;0,432;1,392;
20200831_155409;2,212;4,671;8,090;0,130;0,289;0,186;
20200831_155409;1,566;4,513;7,027;0,103;0,094;-0,568;
20200831_155409;1,041;5,303;7,717;0,062;-0,048;-0,792;
20200831_155409;-0,251;5,485;7,044;0,032;-0,127;-0,653;
20200831_155409;-0,613;6,062;8,207;0,014;-0,070;-0,156;
20200831_155409;-1,264;4,764;9,139;-0,004;0,012;0,263;
20200831_155409;-0,285;4,966;7,247;-0,032;0,107;0,464;
20200831_155409;-0,678;5,069;11,894;-0,105;0,132;0,356;
20200831_155410;0,879;4,566;8,267;0,053;0,088;0,134;
20200831_155410;1,247;4,391;8,085;-0,020;0,025;-0,200;
20200831_155410;-0,053;5,320;8,169;0,034;-0,044;-0,301;
20200831_155410;0,060;6,653;6,258;0,099;-0,049;-0,140;
20200831_155410;0,486;3,601;14,514;-0,036;0,017;0,087;
20200831_155410;0,340;5,569;6,955;0,007;0,091;0,318;
20200831_155410;-0,457;5,873;7,312;-0,010;0,061;0,220;
20200831_155410;0,927;4,820;7,314;0,078;0,076;0,175;
20200831_155410;-1,097;0,984;9,780;-0,130;0,101;0,095;
20200831_155411;-0,122;4,829;9,189;-0,037;0,102;0,161;
20200831_155411;-0,177;5,887;8,255;-0,006;0,155;0,203;
20200831_155411;-0,567;5,770;8,274;0,026;0,156;0,135;
20200831_155411;1,360;4,116;8,581;0,061;0,121;-0,241;
20200831_155411;0,101;4,266;8,325;0,026;0,004;-0,592;
20200831_155411;-0,237;5,662;6,783;0,039;-0,144;-0,662;
20200831_155411;-0,745;5,080;8,744;0,041;-0,156;-0,462;
20200831_155411;-0,857;5,586;8,545;0,035;-0,154;-0,245;
20200831_155411;-0,165;5,466;8,028;0,009;-0,186;-0,123;
20200831_155412;-0,752;5,274;7,867;-0,007;-0,162;-0,034;
20200831_155412;-0,565;5,171;8,375;-0,012;-0,092;0,128;
20200831_155412;-0,208;4,779;8,028;-0,014;-0,032;0,219;
20200831_155412;0,124;5,033;6,258;0,012;-0,005;0,078;
20200831_155412;-0,455;4,901;7,585;0,050;-0,024;-0,070;
20200831_155412;-0,670;4,580;12,182;-0,022;-0,098;-0,108;
20200831_155412;-0,201;5,447;10,412;-0,060;0,005;0,151;
20200831_155412;1,075;4,563;17,092;-0,092;-0,063;-0,005;
20200831_155412;0,084;6,079;5,148;0,000;0,057;-0,063;
20200831_155412;-0,622;4,961;6,962;0,045;-0,018;-0,064;
20200831_155413;-0,045;4,501;7,980;0,085;-0,054;0,025;
20200831_155413;0,524;4,721;9,471;0,038;-0,047;-0,066;
20200831_155413;-1,288;4,343;10,714;-0,093;-0,060;0,002;
20200831_155413;-1,168;2,729;7,163;-0,126;-0,026;0,277;
20200831_155413;-0,347;4,288;9,191;-0,027;0,089;0,238;
20200831_155413;-0,546;5,804;8,799;0,028;-0,039;0,152;
20200831_155413;0,783;3,292;7,408;-0,109;0,048;0,176;
20200831_155413;-0,491;4,140;9,194;0,035;0,101;0,298;
20200831_155413;0,201;3,440;7,290;0,018;0,143;0,218;
20200831_155413;1,221;5,272;8,669;0,003;0,105;-0,107;
20200831_155414;-0,158;6,060;7,489;-0,016;0,070;-0,041;
20200831_155414;0,474;3,840;9,474;-0,042;0,113;0,045;
20200831_155414;0,776;5,413;7,503;0,023;0,104;-0,139;
20200831_155414;0,860;4,843;8,406;0,004;0,071;-0,305;
20200831_155414;-0,177;4,492;8,112;0,022;-0,064;-0,540;
20200831_155414;-0,747;4,314;8,701;0,011;-0,113;-0,325;
20200831_155414;-0,919;5,212;8,602;0,056;-0,144;-0,196;
20200831_155414;-1,185;4,583;8,004;-0,006;-0,085;0,119;
20200831_155414;-1,652;5,646;7,113;-0,003;-0,053;0,227;
20200831_155415;-0,259;4,987;9,045;0,000;-0,049;0,168;
20200831_155415;-0,299;5,224;8,873;0,002;-0,020;0,102;
20200831_155415;0,045;4,420;8,461;-0,003;0,010;0,048;
20200831_155415;-0,254;4,817;8,394;-0,012;0,043;0,121;
20200831_155415;-0,481;4,820;8,454;-0,035;0,069;0,147;
20200831_155415;-0,148;4,578;8,258;-0,030;0,078;0,105;
20200831_155415;0,254;4,946;8,583;0,048;0,104;-0,033;
20200831_155415;0,326;5,301;8,171;0,030;0,039;-0,333;
20200831_155415;-0,271;5,227;7,678;0,046;-0,074;-0,456;
20200831_155415;-0,520;5,476;8,349;0,023;-0,145;-0,325;
20200831_155416;-0,764;5,602;6,747;-0,003;-0,165;-0,180;
20200831_155416;-0,041;5,045;7,721;0,039;-0,160;0,000;
20200831_155416;0,479;5,243;7,903;-0,011;-0,173;0,055;
20200831_155416;-0,608;4,705;8,186;-0,006;-0,074;0,189;
20200831_155416;-1,784;5,239;8,660;0,019;0,007;0,374;
20200831_155416;0,828;4,506;10,551;0,019;-0,001;0,333;
20200831_155416;0,498;3,960;9,098;0,038;0,096;0,218;
20200831_155416;0,836;4,573;8,801;0,060;0,060;0,026;
20200831_155416;0,168;3,828;7,829;0,020;0,061;0,055;
20200831_155417;0,366;4,693;9,009;-0,004;0,050;0,042;
20200831_155417;-0,292;5,425;7,491;0,021;0,077;-0,028;
20200831_155417;-0,974;5,404;7,987;0,007;0,083;0,058;
20200831_155417;-0,615;3,654;9,309;-0,067;0,065;0,015;
20200831_155417;0,603;4,930;7,891;0,009;0,059;-0,040;
20200831_155417;-0,400;4,741;9,045;-0,006;0,039;-0,123;
20200831_155417;-0,747;4,867;9,299;0,017;0,017;-0,118;
20200831_155417;0,196;3,618;6,337;0,015;-0,042;-0,047;
20200831_155417;0,007;4,108;7,046;-0,005;-0,062;-0,057;
20200831_155418;0,309;5,361;7,999;0,028;-0,092;-0,074;
20200831_155418;-0,031;5,246;7,908;-0,038;-0,056;-0,040;
20200831_155418;-0,213;5,435;6,407;0,005;-0,058;-0,069;
20200831_155418;-0,627;4,073;8,236;0,038;-0,086;-0,001;
20200831_155418;-0,563;5,667;8,830;0,011;0,005;0,250;
20200831_155418;-0,180;5,722;7,594;0,036;0,027;0,341;
20200831_155418;0,211;5,823;7,793;0,022;0,099;0,271;
20200831_155418;0,589;6,426;4,724;0,020;0,163;0,022;
20200831_155418;-0,055;5,368;9,005;0,006;0,140;-0,052;
20200831_155418;-1,386;6,041;9,493;0,055;0,069;-0,151;
20200831_155419;-0,278;5,162;9,735;-0,033;0,065;0,061;
20200831_155419;-0,627;4,357;8,068;-0,011;0,078;-0,034;
20200831_155419;-0,223;5,849;7,448;0,046;0,034;-0,201;
20200831_155419;-0,263;6,007;7,044;0,049;-0,014;-0,178;
20200831_155419;0,005;4,051;11,487;-0,063;-0,022;-0,214;
20200831_155419;-0,388;4,638;9,967;0,006;-0,088;-0,181;
20200831_155419;0,055;5,454;7,987;0,037;-0,097;-0,082;
20200831_155419;0,730;4,879;7,652;-0,026;-0,106;-0,155;
20200831_155419;-1,286;4,822;8,540;-0,022;-0,145;-0,115;
20200831_155420;-1,070;4,808;8,780;-0,013;-0,063;0,316;
20200831_155420;0,141;3,974;10,257;-0,013;0,029;0,410;
20200831_155420;-0,156;5,253;8,133;0,013;0,073;0,195;
20200831_155420;0,110;4,207;8,054;0,050;0,115;0,103;
20200831_155420;2,184;4,939;10,776;-0,513;0,123;-0,162;
20200831_155420;-0,903;5,143;9,270;-0,084;0,106;-0,036;
20200831_155420;0,864;-4,075;9,333;-0,171;-0,008;-0,056;
20200831_155420;-0,431;4,192;8,523;-0,004;0,003;-0,153;
20200831_155420;-1,240;5,100;8,703;0,006;-0,085;-0,155;
20200831_155420;0,326;4,887;8,325;0,075;-0,049;0,075;
20200831_155421;0,213;5,183;8,701;0,026;-0,102;-0,058;
20200831_155421;-0,077;5,423;6,958;0,031;-0,061;0,028;
20200831_155421;-0,268;4,894;10,116;-0,056;-0,012;0,016;
20200831_155421;-0,151;4,307;7,089;0,015;-0,040;0,037;
20200831_155421;-0,941;5,155;7,688;0,018;0,043;0,223;
20200831_155421;0,306;4,049;8,569;0,034;0,036;0,111;
20200831_155421;-0,122;6,309;6,021;-0,064;0,069;0,032;
20200831_155421;-0,702;4,441;9,364;0,032;0,060;0,024;
20200831_155421;-0,596;5,291;7,772;0,000;0,041;0,086;
20200831_155422;0,373;4,544;8,193;0,020;0,028;0,074;
20200831_155422;-0,632;4,978;7,702;0,067;0,096;-0,117;
20200831_155422;0,347;4,255;9,438;0,009;-0,072;-0,295;
20200831_155422;-0,326;4,839;6,955;0,009;-0,095;-0,058;
20200831_155422;-0,204;6,524;7,228;0,051;-0,064;0,039;
20200831_155422;-0,354;5,164;8,320;0,004;-0,050;0,090;
20200831_155422;-0,836;3,673;9,814;-0,032;-0,031;0,063;
20200831_155422;-0,704;5,313;7,070;0,041;-0,055;0,087;
20200831_155422;-0,077;4,887;7,333;0,020;0,011;0,220;
20200831_155423;-0,512;5,444;6,232;0,009;0,120;0,197;
20200831_155423;0,716;6,275;6,012;0,049;0,113;0,163;
20200831_155423;0,438;4,310;7,731;0,003;0,111;-0,051;
20200831_155423;-0,247;5,418;8,514;0,030;0,115;-0,064;
20200831_155423;-0,417;3,117;10,156;-0,042;0,066;-0,142;
20200831_155423;-0,055;4,338;7,968;-0,007;0,050;-0,134;
20200831_155423;-0,385;5,875;8,250;0,047;-0,015;-0,154;
20200831_155423;0,402;4,413;8,885;-0,035;-0,057;-0,134;
20200831_155423;0,110;5,073;8,736;0,005;-0,077;-0,125;
20200831_155423;-0,704;4,808;9,450;-0,005;-0,087;-0,104;
20200831_155424;-0,460;5,112;8,760;0,007;-0,111;-0,096;
20200831_155424;-1,465;4,101;7,920;0,011;-0,140;0,010;
20200831_155424;-1,245;4,408;6,857;-0,046;-0,081;0,292;
20200831_155424;-0,967;4,403;11,123;-0,012;0,009;0,265;
20200831_155424;-0,886;4,626;8,040;-0,022;0,083;0,239;
20200831_155424;0,120;4,073;10,166;-0,053;0,091;-0,007;
20200831_155424;-0,263;5,677;6,287;0,056;0,064;-0,138;
20200831_155424;0,939;5,760;10,484;0,038;0,036;-0,179;
20200831_155424;-1,188;4,937;7,594;-0,008;-0,051;-0,237;
20200831_155425;-0,481;6,771;8,090;0,065;-0,040;-0,099;
20200831_155425;0,081;5,001;7,403;0,066;-0,102;-0,008;
20200831_155425;0,182;4,190;8,408;-0,006;-0,044;0,066;
20200831_155425;0,163;5,851;6,661;0,101;-0,028;0,058;
20200831_155425;-0,340;2,543;9,213;-0,061;-0,029;0,089;
20200831_155425;0,122;4,424;8,432;-0,063;-0,010;0,057;
20200831_155425;-0,122;7,061;9,682;0,009;0,048;0,165;
20200831_155425;-0,740;4,547;9,290;-0,013;0,082;0,193;
20200831_155425;1,353;4,748;7,321;0,046;0,140;-0,027;
20200831_155426;-0,493;4,580;7,147;0,016;0,108;-0,230;
20200831_155426;-0,491;3,256;8,516;-0,042;0,003;-0,178;
20200831_155426;-0,563;6,737;7,635;0,068;-0,008;-0,033;
20200831_155426;-1,039;7,302;7,501;0,005;-0,024;-0,023;
20200831_155426;-0,139;4,827;8,648;-0,023;-0,051;-0,074;
20200831_155426;-0,278;5,385;6,759;0,038;-0,064;-0,086;
20200831_155426;-0,247;4,788;6,917;-0,002;-0,064;0,077;
20200831_155426;-1,085;5,128;8,619;-0,004;-0,009;0,086;
20200831_155426;0,086;5,339;7,810;-0,016;-0,009;0,054;
20200831_155426;-0,232;5,054;8,384;0,059;0,013;0,000;
20200831_155427;-0,381;4,944;7,202;0,018;0,027;0,014;
20200831_155427;-0,196;5,195;7,283;0,037;0,044;-0,008;
20200831_155427;-0,426;3,596;8,440;-0,022;-0,000;0,012;
20200831_155427;-0,292;5,634;7,549;0,004;0,013;-0,002;
20200831_155427;-0,412;5,200;8,147;-0,013;0,042;0,024;
20200831_155427;0,127;4,915;7,673;0,031;0,086;-0,005;
20200831_155427;0,505;4,635;8,274;0,038;-0,027;-0,206;
20200831_155427;-0,560;4,915;8,124;-0,017;-0,048;-0,114;
20200831_155427;-0,127;5,090;8,839;0,018;-0,073;-0,042;
20200831_155428;-1,044;4,827;6,800;0,029;-0,055;0,014;
20200831_155428;0,151;5,284;8,595;-0,033;-0,090;0,039;
20200831_155428;-1,087;3,390;9,483;-0,059;-0,021;0,250;
20200831_155428;-0,527;4,551;8,377;0,017;0,060;0,287;
20200831_155428;0,089;3,924;8,282;0,014;0,085;0,142;
20200831_155428;0,771;5,442;7,465;0,033;0,065;-0,132;
20200831_155428;-0,057;3,730;9,744;-0,045;-0,009;-0,239;
20200831_155428;-0,855;4,906;7,776;0,032;-0,038;0,079;
20200831_155428;-0,845;5,559;6,677;-0,018;0,055;0,194;
20200831_155429;0,929;5,737;7,099;-0,037;0,124;0,187;
20200831_155429;1,065;4,389;9,361;0,078;0,114;-0,254;
20200831_155429;0,306;4,836;8,171;0,009;0,050;-0,380;
20200831_155429;-0,520;4,676;8,672;0,004;-0,049;-0,267;
20200831_155429;-0,694;4,831;7,863;0,009;-0,047;-0,067;
20200831_155429;-0,194;4,764;7,472;0,032;-0,024;0,096;
20200831_155429;-0,062;5,016;9,615;-0,001;-0,006;0,050;
20200831_155429;0,397;5,435;7,195;0,014;-0,011;-0,084;
20200831_155429;-0,678;5,409;8,983;-0,023;0,010;-0,022;
20200831_155429;-0,520;4,492;7,056;0,048;-0,029;-0,019;
20200831_155430;0,692;4,310;8,545;0,027;-0,038;-0,059;
20200831_155430;-0,802;4,499;8,495;0,007;-0,067;-0,171;
20200831_155430;-0,223;5,792;6,855;0,030;-0,097;-0,070;
20200831_155430;0,275;4,602;7,922;0,006;-0,135;-0,146;
20200831_155430;0,074;5,511;6,711;0,044;-0,151;-0,013;
20200831_155430;-1,654;4,781;8,717;0,001;-0,063;0,217;
20200831_155430;-0,153;4,410;9,708;0,002;-0,053;0,246;
20200831_155430;-0,160;4,231;7,582;-0,027;0,058;0,228;
20200831_155430;-0,139;5,160;6,922;0,041;0,088;0,050;
20200831_155431;-1,161;4,685;7,319;0,022;0,090;0,043;
20200831_155431;-0,639;5,198;7,827;0,012;0,116;0,041;
20200831_155431;-0,163;4,130;7,575;-0,013;0,055;-0,096;
20200831_155431;0,122;3,972;8,191;-0,026;-0,013;-0,126;
20200831_155431;0,036;4,384;7,685;-0,029;0,032;-0,158;
20200831_155431;-0,632;6,531;7,599;-0,007;-0,031;-0,141;
20200831_155431;-0,680;3,898;7,173;0,022;-0,104;-0,025;
20200831_155431;-0,160;4,408;8,423;0,044;-0,097;0,121;
20200831_155431;-0,294;4,168;10,266;-0,029;-0,024;0,061;
20200831_155431;0,089;5,392;9,404;0,014;-0,006;0,030;
20200831_155432;-1,499;5,138;8,361;0,002;-0,006;0,076;
20200831_155432;0,728;3,970;8,686;-0,026;0,013;0,153;
20200831_155432;-0,915;4,635;10,307;-0,029;0,072;0,058;
20200831_155432;-0,098;5,653;7,357;0,023;0,017;0,026;
20200831_155432;-0,345;5,296;8,483;-0,016;0,044;0,103;
20200831_155432;-1,279;4,463;8,320;-0,031;0,130;0,208;
20200831_155432;0,555;3,962;8,325;0,000;0,118;0,024;
20200831_155432;-0,330;4,199;8,866;-0,001;0,127;-0,188;
20200831_155432;0,110;4,527;7,377;0,033;-0,008;-0,274;
20200831_155433;0,139;3,409;8,219;-0,010;-0,022;-0,190;
20200831_155433;-0,242;4,393;8,552;-0,028;-0,090;-0,136;
20200831_155433;-0,622;4,089;8,511;-0,055;-0,092;-0,066;
20200831_155433;0,074;4,353;7,561;0,068;-0,099;-0,063;
20200831_155433;-0,927;3,955;8,983;0,033;-0,123;-0,067;
20200831_155433;-0,871;4,719;8,246;0,011;-0,093;0,277;
20200831_155433;-0,730;5,717;8,095;0,005;-0,012;0,330;
20200831_155433;-0,005;4,590;7,307;0,005;0,055;0,327;
20200831_155433;-0,086;5,768;6,424;-0,003;0,152;0,134;
20200831_155433;0,160;4,973;8,162;0,037;0,091;-0,122;
20200831_155434;0,831;5,131;9,134;0,027;0,023;-0,241;
20200831_155434;-1,422;5,435;7,460;0,006;-0,007;-0,214;
20200831_155434;-0,201;5,839;6,462;0,081;-0,093;-0,076;
20200831_155434;-0,378;5,076;7,803;0,015;-0,051;0,152;
20200831_155434;-0,622;4,044;8,643;-0,031;-0,031;0,152;
20200831_155434;-0,462;4,800;8,677;-0,036;0,045;-0,023;
20200831_155434;0,204;5,009;7,633;0,048;-0,014;-0,085;
20200831_155434;-0,383;4,456;7,230;0,056;-0,017;0,011;
20200831_155434;-0,369;5,303;8,375;0,010;0,027;0,109;
20200831_155435;-0,122;4,547;9,503;0,006;-0,003;0,083;
20200831_155435;-0,508;4,889;8,461;-0,031;0,067;0,161;
20200831_155435;0,426;5,555;7,748;0,001;0,120;0,088;
20200831_155435;0,151;5,145;9,701;0,015;0,075;-0,074;
20200831_155435;-0,213;4,896;6,917;0,001;0,101;-0,188;
20200831_155435;-0,730;4,609;9,653;-0,028;0,001;-0,142;
20200831_155435;-0,417;3,836;7,381;-0,036;0,003;-0,032;
20200831_155435;0,247;5,128;7,530;0,012;-0,050;-0,065;
20200831_155435;0,146;5,772;7,348;0,011;-0,026;-0,038;
20200831_155436;-0,098;4,887;9,428;-0,010;-0,026;-0,057;
20200831_155436;-1,104;3,156;8,547;-0,004;0,005;0,024;
20200831_155436;-0,491;5,133;5,818;0,063;-0,028;0,024;
20200831_155436;0,376;7,080;9,570;0,049;-0,066;-0,038;
20200831_155436;0,124;3,802;14,334;-0,062;-0,043;0,026;
20200831_155436;-0,812;3,278;9,462;-0,080;-0,001;0,064;
20200831_155436;-0,649;4,559;9,627;0,226;-0,005;0,131;
20200831_155436;0,620;4,286;7,819;0,027;0,002;0,050;
20200831_155436;-0,867;5,361;7,532;0,002;0,001;-0,056;
20200831_155436;-0,242;5,306;7,029;-0,036;-0,071;-0,054;
20200831_155437;-0,563;4,872;5,181;0,001;-0,045;0,120;
20200831_155437;-0,263;5,306;8,040;-0,043;0,021;0,124;
20200831_155437;0,144;5,112;7,511;0,000;0,037;0,045;
20200831_155437;-0,438;4,290;9,924;-0,005;0,045;-0,061;
20200831_155437;0,168;4,973;7,441;0,052;-0,009;-0,102;
20200831_155437;-0,893;5,186;8,667;0,014;0,019;0,027;
20200831_155437;0,022;4,542;6,689;0,038;0,004;0,100;
20200831_155437;-1,070;5,430;9,646;-0,032;0,027;-0,043;
20200831_155437;-0,304;4,963;6,649;-0,012;-0,000;0,062;
20200831_155438;-0,630;4,932;8,849;-0,026;0,023;0,141;
20200831_155438;-0,584;4,752;9,574;0,003;0,056;0,092;
20200831_155438;-0,124;5,435;6,340;0,037;0,045;-0,035;
20200831_155438;-1,204;4,650;5,377;0,084;0,059;0,013;
20200831_155438;0,354;4,286;9,421;-0,019;0,038;0,013;
20200831_155438;0,426;4,863;7,195;0,007;0,071;-0,049;
20200831_155438;0,180;6,426;7,432;-0,006;0,068;-0,110;
20200831_155438;-0,412;2,586;8,126;-0,037;0,054;-0,158;
20200831_155438;0,060;3,467;7,491;-0,019;0,036;-0,097;
20200831_155438;-0,646;4,424;7,922;0,042;0,056;-0,063;
20200831_155439;0,024;5,267;9,685;-0,002;-0,006;-0,090;
20200831_155439;-0,615;5,018;6,606;0,059;0,044;-0,082;
20200831_155439;-1,046;4,312;7,970;0,030;0,010;-0,088;
20200831_155439;-0,809;4,515;9,100;-0,020;-0,023;-0,088;
20200831_155439;0,287;3,575;7,422;0,021;-0,102;-0,203;
20200831_155439;-0,436;4,712;8,837;0,032;-0,154;-0,136;
20200831_155439;-0,905;4,712;8,765;0,002;-0,064;0,080;
20200831_155439;0,467;5,078;9,220;-0,022;-0,079;0,034;
20200831_155439;-0,488;5,313;9,009;-0,037;-0,060;-0,020;
20200831_155440;0,654;4,796;10,025;-0,003;-0,095;-0,148;
20200831_155440;-1,178;4,824;8,143;0,007;-0,159;0,064;
20200831_155440;-0,491;6,002;7,513;0,028;-0,013;0,408;
20200831_155440;0,029;5,411;10,817;0,009;0,083;0,191;
20200831_155440;0,352;4,966;9,531;-0,028;0,047;0,034;
20200831_155440;0,567;5,375;8,770;0,022;0,005;-0,187;
20200831_155440;-1,970;4,503;8,215;0,017;-0,034;-0,031;
20200831_155440;0,302;5,042;9,934;-0,032;-0,091;0,086;
20200831_155440;-1,575;6,383;7,482;-0,050;-0,032;0,139;
20200831_155441;-0,251;5,490;7,369;0,009;-0,029;0,260;
20200831_155441;0,433;5,160;7,872;0,004;0,053;0,206;
20200831_155441;0,156;5,136;9,108;-0,011;0,081;0,044;
20200831_155441;0,043;5,329;7,084;-0,019;0,114;-0,018;
20200831_155441;-0,527;4,137;9,378;0,064;0,105;-0,200;
20200831_155441;-0,381;4,523;9,687;-0,051;0,037;-0,013;
20200831_155441;-1,590;6,589;6,048;0,025;0,132;0,037;
20200831_155441;0,211;3,950;8,712;0,010;0,065;-0,106;
20200831_155441;-0,606;5,322;9,206;0,064;0,072;-0,157;
20200831_155441;-0,424;4,700;7,927;-0,012;0,010;-0,107;
20200831_155442;-1,271;5,018;6,926;0,028;-0,027;-0,126;
20200831_155442;0,170;4,958;8,847;-0,003;-0,058;-0,023;
20200831_155442;-0,584;5,162;8,337;-0,018;-0,027;-0,140;
20200831_155442;-0,371;5,160;8,485;0,021;-0,082;-0,051;
20200831_155442;0,278;3,912;6,943;0,052;-0,083;-0,091;
20200831_155442;-0,127;6,328;7,058;0,063;-0,106;-0,081;
20200831_155442;-0,493;4,872;7,013;0,037;-0,089;0,008;
20200831_155442;-1,973;4,494;8,760;-0,043;-0,024;0,266;
20200831_155442;-0,852;5,365;7,389;0,011;0,055;0,385;
20200831_155443;1,006;4,659;8,990;0,069;0,170;0,135;
20200831_155443;-0,658;5,119;6,855;0,049;0,167;-0,319;
20200831_155443;-0,103;6,426;7,010;0,025;0,006;-0,371;
20200831_155443;0,117;4,398;5,837;0,038;-0,041;-0,246;
20200831_155443;-0,472;5,708;8,815;-0,024;-0,126;-0,084;
20200831_155443;-0,618;7,137;6,993;0,077;-0,059;0,010;
20200831_155443;-1,027;5,423;7,628;0,002;-0,152;-0,096;
20200831_155443;-0,508;4,535;8,341;-0,008;-0,144;0,077;
20200831_155443;-0,211;6,036;6,991;0,021;-0,077;0,168;
20200831_155443;0,297;4,733;7,685;0,044;-0,057;0,038;
20200831_155444;-0,132;4,968;8,272;-0,037;-0,067;0,031;
20200831_155444;-1,539;5,583;8,552;-0,003;-0,040;0,192;
20200831_155444;-0,055;5,033;7,688;0,017;0,019;0,309;
20200831_155444;0,132;4,872;9,029;0,070;0,105;0,179;
20200831_155444;-0,654;5,478;7,855;-0,015;0,103;0,111;
20200831_155444;-0,072;5,909;6,373;0,042;0,151;0,188;
20200831_155444;-0,871;5,009;8,497;0,102;0,194;0,085;
20200831_155444;0,196;2,545;8,693;-0,029;0,126;-0,065;
20200831_155444;-0,807;5,100;9,426;-0,016;0,088;-0,176;
20200831_155445;-0,254;5,090;7,520;-0,004;0,008;-0,186;
20200831_155445;-0,804;5,047;8,543;-0,016;0,028;-0,052;
20200831_155445;-0,122;4,424;8,459;-0,007;-0,010;-0,109;
20200831_155445;0,582;4,278;9,378;-0,017;-0,106;-0,269;
20200831_155445;-0,972;5,897;11,351;-0,016;-0,096;0,021;
20200831_155445;-1,228;4,786;9,273;0,028;-0,111;0,171;
20200831_155445;-0,091;4,812;8,066;-0,112;-0,062;0,256;
20200831_155445;-1,089;4,223;9,974;-0,060;0,072;0,330;
20200831_155445;0,239;6,577;9,225;0,035;0,135;0,324;
20200831_155445;-0,613;5,368;4,432;0,098;0,224;0,021;
20200831_155446;0,567;4,760;6,115;0,093;0,132;-0,213;
20200831_155446;0,335;3,594;9,634;0,016;-0,032;-0,360;
20200831_155446;-1,164;6,795;7,977;0,094;-0,118;-0,292;
20200831_155446;-1,808;6,500;9,024;0,044;-0,159;0,139;
20200831_155446;-0,366;4,908;9,543;-0,068;-0,026;0,431;
20200831_155446;0,455;5,514;7,666;-0,017;0,117;0,168;
20200831_155446;1,841;5,102;4,836;0,000;0,097;-0,089;
20200831_155446;-0,124;4,216;8,308;0,022;0,044;-0,222;
20200831_155446;0,098;3,785;9,404;-0,011;0,005;-0,065;
20200831_155447;-0,986;4,764;7,994;-0,019;-0,013;0,058;
20200831_155447;0,218;3,543;9,390;0,006;0,010;0,074;
20200831_155447;-0,637;3,836;8,368;0,014;0,019;0,072;
20200831_155447;-0,910;6,000;8,124;-0,015;0,017;0,135;
20200831_155447;-0,642;5,222;9,110;-0,029;-0,042;0,078;
20200831_155447;-0,429;4,405;8,255;-0,007;0,034;0,109;
20200831_155447;-0,527;4,645;9,086;0,023;0,031;0,176;
20200831_155447;1,077;4,741;7,391;0,079;0,021;0,010;
20200831_155447;0,244;4,994;9,359;0,013;0,040;-0,180;
20200831_155447;-0,596;5,066;7,736;0,031;-0,018;0,005;
20200831_155448;-0,268;3,522;8,305;0,030;0,036;0,121;
20200831_155448;-0,077;3,792;8,736;-0,031;0,013;0,041;
20200831_155448;-0,062;3,747;10,288;-0,007;0,087;0,151;
20200831_155448;0,151;4,480;9,926;0,006;0,036;0,107;
20200831_155448;-0,481;5,928;9,079;0,056;0,086;0,063;
20200831_155448;-0,505;5,210;8,279;0,026;0,122;0,064;
20200831_155448;0,043;3,771;11,439;-0,064;0,044;-0,024;
20200831_155448;-0,163;4,767;8,286;0,030;0,037;-0,028;
20200831_155448;-0,886;4,240;8,882;-0,051;0,042;-0,041;
20200831_155449;0,766;3,383;7,889;-0,030;0,026;-0,033;
20200831_155449;0,323;3,637;7,068;0,042;0,016;-0,125;
20200831_155449;0,213;5,356;9,304;0,035;-0,051;-0,184;
20200831_155449;-0,611;2,227;10,542;-0,016;-0,012;-0,025;
20200831_155449;-0,002;3,663;7,384;-0,036;-0,032;0,022;
20200831_155449;-0,718;5,171;8,152;0,015;-0,011;0,209;
20200831_155449;-0,285;4,810;8,768;-0,069;0,080;0,168;
20200831_155449;0,472;5,887;8,291;0,061;0,056;0,000;
20200831_155449;-1,109;5,667;5,933;0,031;0,080;0,008;
20200831_155450;-0,488;4,187;8,255;-0,038;0,051;0,095;
20200831_155450;-1,041;4,927;8,985;0,000;0,057;0,094;
20200831_155450;-0,340;7,726;4,741;0,015;0,076;0,065;
20200831_155450;-1,290;4,365;8,825;-0,017;0,168;0,069;
20200831_155450;0,694;4,345;8,890;0,100;0,084;-0,378;
20200831_155450;-0,036;6,479;5,356;0,063;-0,061;-0,474;
20200831_155450;-0,563;4,824;7,616;-0,017;-0,100;-0,174;
20200831_155450;-0,924;5,224;8,193;0,030;-0,104;-0,097;
20200831_155450;-0,570;5,966;8,210;0,097;-0,185;-0,071;
20200831_155450;-0,419;5,069;6,953;0,090;-0,103;0,130;
20200831_155451;-0,242;4,946;8,547;0,004;-0,008;0,282;
20200831_155451;0,081;4,020;8,361;0,026;0,057;0,229;
20200831_155451;-0,290;6,191;7,456;-0,035;0,098;0,085;
20200831_155451;-1,456;4,554;7,355;-0,027;0,120;-0,037;
20200831_155451;0,397;6,105;7,190;0,018;0,021;-0,066;
20200831_155451;-0,828;6,352;7,163;0,016;0,106;0,055;
20200831_155451;0,302;5,231;6,955;0,037;0,051;-0,101;
20200831_155451;-0,752;4,951;8,198;0,007;0,025;-0,266;
20200831_155451;0,532;4,331;8,198;0,034;-0,054;-0,262;
20200831_155452;0,474;4,927;10,144;0,072;-0,077;-0,328;
20200831_155452;-1,027;3,184;9,357;0,026;-0,161;-0,215;
20200831_155452;-0,275;3,742;9,989;0,028;-0,227;-0,026;
20200831_155452;-1,784;5,425;7,365;-0,020;-0,160;0,356;
20200831_155452;-0,579;3,725;12,895;0,018;-0,089;0,491;
20200831_155452;-0,180;3,395;10,501;0,039;0,074;0,387;
20200831_155452;-0,199;5,631;6,938;0,035;0,145;0,210;
20200831_155452;-0,263;4,144;8,243;-0,023;0,150;0,004;
20200831_155452;0,728;3,771;9,862;0,002;0,053;-0,159;
20200831_155452;-0,874;4,697;7,293;0,041;0,016;-0,224;
20200831_155453;-0,584;4,860;8,023;0,036;-0,001;0,041;
20200831_155453;0,350;5,030;8,140;-0,068;-0,038;0,104;
20200831_155453;-0,132;3,917;10,317;-0,047;0,010;0,030;
20200831_155453;0,989;4,082;7,884;0,021;-0,005;-0,038;
20200831_155453;-1,144;3,780;7,779;0,005;0,029;0,063;
20200831_155453;-1,283;5,265;10,302;-0,032;0,075;0,228;
20200831_155453;0,163;4,324;9,280;-0,066;0,140;0,141;
20200831_155453;0,656;4,729;7,439;0,026;0,098;-0,044;
20200831_155453;0,500;5,957;7,561;-0,011;0,131;-0,063;
20200831_155453;-0,103;3,804;10,278;-0,003;0,085;-0,134;
20200831_155454;0,115;4,441;9,443;0,000;0,017;-0,156;
20200831_155454;0,124;4,511;7,556;0,014;0,037;-0,135;
20200831_155454;-0,287;5,957;7,764;0,039;-0,042;-0,157;
20200831_155454;-0,666;6,096;8,258;0,018;-0,004;-0,016;
20200831_155454;0,002;5,325;8,396;0,006;-0,043;-0,173;
20200831_155454;0,218;5,143;8,198;-0,045;-0,057;-0,185;
20200831_155454;-0,469;4,405;8,844;0,016;-0,083;-0,107;
20200831_155454;-0,227;4,556;9,074;-0,003;-0,093;-0,011;
20200831_155454;-0,752;4,111;9,641;0,001;-0,046;0,036;
20200831_155455;-0,735;5,634;5,741;0,051;-0,074;-0,002;
20200831_155455;-1,053;4,712;7,671;-0,047;-0,009;0,109;
20200831_155455;0,196;6,677;10,712;-0,028;-0,020;-0,028;
20200831_155455;-1,626;2,488;7,961;-0,062;0,021;0,047;
20200831_155455;-0,127;5,902;8,871;-0,052;-0,038;-0,025;
20200831_155455;-0,754;6,220;7,429;0,035;-0,032;-0,070;
20200831_155455;0,024;5,538;6,960;0,031;-0,045;0,064;
20200831_155455;0,055;3,541;8,138;-0,081;-0,071;-0,049;
20200831_155455;-0,254;-2,995;27,272;-0,196;-0,136;-0,076;
20200831_155456;-0,445;1,453;16,879;-0,485;-0,039;-0,039;
20200831_155456;-0,761;18,146;-2,322;0,507;0,021;-0,205;
20200831_155456;-1,008;4,606;13,575;0,011;0,027;-0,080;
20200831_155456;-0,326;4,329;7,214;0,009;-0,016;0,014;
20200831_155456;0,472;2,255;11,849;-0,126;0,116;0,245;
20200831_155456;-0,788;5,602;8,466;-0,031;0,053;0,060;
20200831_155456;-0,144;5,437;7,274;-0,034;0,158;0,135;
20200831_155456;0,347;4,487;8,696;0,052;0,094;-0,248;
20200831_155456;0,089;1,571;12,306;0,199;0,070;-0,407;
20200831_155457;-0,347;6,653;7,278;0,027;-0,018;-0,401;
20200831_155457;-0,414;7,178;1,420;-0,091;-0,169;-0,165;
20200831_155457;-0,625;4,175;6,460;0,116;-0,128;-0,012;
20200831_155457;0,654;3,019;9,309;-0,099;-0,114;0,020;
20200831_155457;-0,948;4,621;9,017;-0,035;-0,071;-0,194;
20200831_155457;-1,271;6,950;4,470;0,002;-0,073;0,079;
20200831_155457;-1,322;5,918;3,778;-0,003;-0,038;0,071;
20200831_155457;0,297;4,939;12,570;-0,023;-0,018;0,069;
20200831_155457;-1,161;2,746;6,302;0,072;0,017;-0,008;
20200831_155457;1,302;7,506;3,814;-0,084;-0,008;-0,089;
20200831_155458;-1,674;4,013;15,026;-0,044;-0,062;-0,164;
20200831_155458;-0,675;2,658;6,361;0,275;-0,023;-0,028;
20200831_155458;0,208;3,292;11,183;-0,007;-0,153;0,000;
20200831_155458;-0,366;3,321;9,510;-0,219;-0,091;0,153;
20200831_155458;-1,425;7,539;5,555;-0,083;-0,139;0,208;
20200831_155458;0,204;5,033;8,686;-0,051;-0,046;0,381;
20200831_155458;0,649;4,259;8,535;-0,071;0,089;0,185;
20200831_155458;1,013;4,187;10,314;-0,053;0,109;-0,063;
20200831_155458;-1,492;4,283;5,361;-0,068;0,157;-0,111;
20200831_155458;0,716;4,918;7,274;0,005;0,050;-0,120;
20200831_155459;0,476;5,964;4,245;0,081;0,018;-0,195;
20200831_155459;-1,295;5,030;7,125;-0,086;0,008;-0,031;
20200831_155459;-0,429;5,854;7,350;0,007;-0,018;-0,023;
20200831_155459;-1,302;4,745;10,563;-0,013;0,049;0,029;
20200831_155459;0,941;3,407;9,687;-0,142;-0,047;0,002;
20200831_155459;0,297;4,894;5,083;0,035;-0,033;-0,174;
20200831_155459;-1,393;6,450;8,818;0,163;-0,062;-0,171;
20200831_155459;2,014;-0,998;9,859;-0,018;-0,124;0,120;
20200831_155459;0,196;3,862;11,191;0,046;-0,028;0,032;
20200831_155500;1,930;6,187;5,454;-0,065;-0,070;-0,065;
20200831_155500;0,101;4,609;8,823;0,022;-0,047;-0,067;
20200831_155500;-0,639;5,021;6,388;0,004;-0,033;0,066;
20200831_155500;-0,881;5,444;6,517;0,004;0,056;0,178;
20200831_155500;1,199;6,634;4,535;-0,094;0,108;-0,108;
20200831_155500;-0,622;5,274;8,832;-0,016;0,043;-0,050;
20200831_155500;-0,369;5,217;7,309;-0,068;0,008;0,088;
20200831_155500;-0,345;3,438;9,608;-0,049;0,024;-0,040;
20200831_155500;-0,017;5,052;7,532;-0,022;0,029;-0,043;
20200831_155501;-0,407;4,111;10,542;-0,013;-0,040;-0,094;
20200831_155501;0,828;5,308;8,396;-0,017;-0,016;0,018;
20200831_155501;-0,117;4,810;9,220;-0,020;-0,021;-0,111;
20200831_155501;0,347;2,954;8,162;0,045;-0,025;-0,057;
20200831_155501;-0,797;2,567;7,530;-0,060;-0,025;-0,054;
20200831_155501;-0,029;5,272;7,865;-0,004;-0,029;0,040;
20200831_155501;-0,601;4,180;9,031;0,041;0,026;0,098;
20200831_155501;0,472;3,634;6,962;-0,127;0,054;0,033;
20200831_155501;0,321;5,476;9,562;-0,037;0,062;-0,093;
20200831_155502;-0,718;5,004;8,626;0,069;0,006;-0,241;
20200831_155502;-0,599;2,998;6,359;0,087;-0,079;-0,017;
20200831_155502;-0,587;3,819;8,452;0,034;-0,086;-0,045;
20200831_155502;-0,294;5,681;7,807;0,107;-0,102;0,159;
20200831_155502;-0,668;2,629;10,965;-0,069;0,010;0,021;
20200831_155502;-0,129;5,516;9,371;-0,060;-0,016;-0,084;
20200831_155502;-0,405;5,138;5,114;0,029;-0,013;-0,033;
20200831_155502;-0,132;3,996;6,656;-0,012;0,022;0,008;
20200831_155502;0,781;5,952;4,731;0,119;0,036;0,098;
20200831_155502;-0,927;3,900;13,874;0,133;0,017;-0,073;
20200831_155503;-0,560;4,944;8,363;-0,035;-0,012;-0,121;
20200831_155503;-0,998;4,532;11,037;0,078;-0,027;0,024;
20200831_155503;-1,025;5,231;8,420;0,062;-0,014;0,067;
20200831_155503;-0,213;3,194;9,843;-0,143;0,052;0,159;
20200831_155503;0,452;4,961;6,088;-0,005;0,033;-0,071;
20200831_155503;-0,668;4,829;12,512;-0,200;-0,015;-0,114;
20200831_155503;-0,309;5,246;7,681;0,074;-0,048;-0,053;
20200831_155503;1,171;3,766;6,754;0,009;-0,053;-0,039;
20200831_155503;-1,235;3,680;8,294;0,001;-0,006;-0,010;
20200831_155504;-0,232;2,868;8,104;-0,077;0,016;0,225;
20200831_155504;0,084;5,353;9,014;0,001;0,075;0,119;
20200831_155504;0,852;4,281;5,452;0,005;0,092;-0,048;
20200831_155504;1,006;5,516;8,976;-0,066;0,031;-0,249;
20200831_155504;-0,584;4,573;9,929;-0,036;-0,065;-0,292;
20200831_155504;-0,479;2,037;7,980;0,060;-0,161;-0,021;
20200831_155504;-1,058;2,193;7,719;-0,016;-0,058;0,260;
