Timestamp;Accel_x;Accel_y;Accel_z;Gyro_x;Gyro_y;Gyro_z;
20200827_191137;0.278;5.191;7.913;0.037;-0.049;-0.021;
20200827_191137;0.168;5.198;8.068;-0.000;-0.003;-0.039;
20200827_191137;0.132;5.107;8.037;-0.005;-0.007;-0.057;
20200827_191137;0.103;5.155;8.049;-0.002;0.000;-0.055;
20200827_191138;-0.091;5.025;8.095;-0.002;0.006;-0.011;
20200827_191138;0.074;6.306;7.640;0.006;0.020;0.067;
20200827_191138;0.350;4.233;8.440;-0.008;0.032;0.116;
20200827_191138;0.038;6.213;7.669;0.013;0.006;-0.018;
20200827_191138;0.151;4.662;8.339;-0.008;0.038;0.098;
20200827_191138;0.024;5.648;7.932;0.013;0.027;0.026;
20200827_191138;0.081;5.109;8.092;-0.005;0.028;0.051;
20200827_191138;0.062;5.258;8.131;0.007;0.020;0.023;
20200827_191138;0.036;5.430;7.956;-0.000;0.021;0.056;
20200827_191138;0.192;4.992;8.179;0.002;0.018;0.067;
20200827_191139;0.196;5.567;7.887;-0.000;0.019;0.063;
20200827_191139;0.196;4.700;8.296;-0.002;0.019;0.057;
20200827_191139;0.579;5.523;7.853;-0.001;-0.015;-0.003;
20200827_191139;0.163;5.057;8.011;-0.000;0.000;-0.013;
20200827_191139;0.146;5.538;7.975;0.001;-0.016;-0.054;
20200827_191139;0.093;5.049;8.131;-0.003;-0.015;-0.040;
20200827_191139;-0.022;5.490;7.951;0.001;-0.006;-0.013;
20200827_191139;0.237;5.102;8.080;-0.004;-0.021;-0.022;
20200827_191139;0.168;5.397;8.006;0.002;-0.005;-0.007;
20200827_191139;0.024;5.210;8.068;-0.002;0.019;0.058;
20200827_191140;0.048;5.279;8.028;0.001;-0.020;-0.007;
20200827_191140;0.093;5.322;8.018;-0.003;-0.034;-0.014;
20200827_191140;0.266;5.169;8.085;-0.002;-0.040;-0.023;
20200827_191140;0.340;5.325;8.013;-0.002;-0.033;-0.028;
20200827_191140;0.297;5.174;8.064;-0.000;-0.012;0.008;
20200827_191140;0.309;5.318;8.033;-0.000;-0.010;-0.001;
20200827_191140;0.184;5.224;8.097;0.001;0.006;0.016;
20200827_191140;0.201;5.291;8.049;0.001;0.005;0.021;
20200827_191140;0.204;5.246;8.061;-0.000;0.002;0.025;
20200827_191141;0.414;5.262;8.035;-0.000;-0.010;-0.008;
20200827_191141;0.314;5.260;8.033;-0.000;-0.015;-0.047;
20200827_191141;0.251;5.227;8.059;-0.000;-0.008;-0.031;
20200827_191141;0.261;5.284;8.028;0.001;0.004;0.014;
20200827_191141;0.302;5.212;8.052;-0.000;0.006;0.019;
20200827_191141;0.283;5.301;8.033;0.002;-0.001;-0.009;
20200827_191141;0.290;5.227;8.054;0.001;0.001;-0.003;
20200827_191141;0.218;5.260;8.052;0.001;-0.001;-0.003;
20200827_191141;0.278;5.248;8.056;-0.001;0.000;0.003;
20200827_191141;0.232;5.255;8.049;-0.000;0.001;0.008;
20200827_191142;0.278;5.274;8.052;-0.000;-0.004;0.002;
20200827_191142;0.330;5.277;8.040;0.001;-0.004;-0.003;
20200827_191142;0.321;5.248;8.040;-0.001;-0.001;-0.000;
20200827_191142;0.218;5.282;8.059;0.001;-0.003;-0.005;
20200827_191142;0.280;5.243;8.080;-0.001;-0.004;0.002;
20200827_191142;0.338;5.274;8.045;0.001;-0.004;-0.013;
20200827_191142;0.242;5.243;8.056;-0.001;0.002;-0.008;
20200827_191142;0.259;5.260;8.054;0.001;0.005;0.007;
20200827_191142;0.421;5.207;8.045;0.001;0.005;0.016;
20200827_191143;0.314;5.107;8.112;-0.000;0.010;0.019;
20200827_191143;0.239;5.102;8.128;-0.000;0.002;-0.002;
20200827_191143;0.215;5.227;8.011;-0.002;-0.021;-0.064;
20200827_191143;0.285;5.143;8.126;-0.003;-0.029;-0.081;
20200827_191143;0.189;5.274;8.066;-0.002;-0.005;-0.002;
20200827_191143;0.376;5.804;7.805;0.006;-0.001;0.005;
20200827_191143;0.316;5.310;7.985;-0.002;0.000;0.020;
20200827_191143;0.266;5.157;8.124;0.003;0.009;0.013;
20200827_191143;0.278;5.193;7.975;-0.003;0.008;0.022;
20200827_191143;0.232;5.241;8.076;0.004;0.005;-0.009;
20200827_191144;0.273;5.145;8.100;-0.003;0.009;0.004;
20200827_191144;0.168;5.375;8.006;0.002;0.004;-0.015;
20200827_191144;0.292;5.145;8.107;0.001;0.009;0.010;
20200827_191144;0.299;5.195;8.047;-0.001;0.002;-0.024;
20200827_191144;0.266;5.282;8.035;0.001;0.012;-0.008;
20200827_191144;0.108;5.246;8.054;0.001;0.018;0.008;
20200827_191144;0.239;5.255;8.073;0.001;0.013;0.005;
20200827_191144;0.115;5.231;8.085;-0.002;0.003;-0.022;
20200827_191144;0.148;5.262;8.083;-0.000;0.004;-0.009;
20200827_191145;0.256;5.234;8.076;0.001;0.009;-0.015;
20200827_191145;0.476;4.920;8.059;0.001;0.031;0.017;
20200827_191145;0.314;5.250;8.061;0.002;0.041;-0.040;
20200827_191145;0.122;5.368;8.011;0.004;0.053;-0.048;
20200827_191145;0.594;5.298;7.973;0.005;0.079;-0.029;
20200827_191145;0.079;5.212;7.966;0.007;0.112;-0.033;
20200827_191145;-0.455;5.241;8.025;0.012;0.143;0.001;
20200827_191145;-1.022;5.435;8.013;0.011;0.109;-0.040;
20200827_191145;-1.250;5.327;7.989;0.004;0.033;-0.083;
20200827_191145;-0.943;5.203;8.052;-0.000;-0.020;-0.029;
20200827_191146;-0.541;5.188;8.073;-0.001;-0.038;0.030;
20200827_191146;-0.390;5.320;8.009;-0.003;-0.048;0.010;
20200827_191146;-0.297;5.358;7.977;-0.004;-0.052;-0.012;
20200827_191146;-0.259;5.353;7.992;-0.004;-0.055;-0.033;
20200827_191146;-0.275;5.174;8.107;-0.003;-0.070;-0.078;
20200827_191146;-0.259;5.109;8.147;-0.002;-0.049;-0.038;
20200827_191146;-0.208;5.148;8.131;-0.001;-0.018;0.016;
20200827_191146;-0.199;5.227;8.078;0.001;-0.012;0.014;
20200827_191146;-0.237;5.353;7.997;0.001;-0.006;0.009;
20200827_191146;-0.232;5.313;8.028;0.002;0.008;0.042;
20200827_191147;-0.151;5.222;8.061;0.001;0.010;0.040;
20200827_191147;-0.204;5.241;8.052;0.001;0.001;-0.002;
20200827_191147;-0.239;5.296;8.049;0.001;-0.001;-0.010;
20200827_191147;-0.247;5.284;8.021;0.001;0.000;0.005;
20200827_191147;-0.189;5.265;8.061;-0.000;-0.010;-0.018;
20200827_191147;-0.223;5.229;8.052;-0.001;-0.013;-0.025;
20200827_191147;-0.213;5.231;8.054;0.001;-0.003;0.006;
20200827_191147;-0.204;5.262;8.076;-0.001;-0.003;0.004;
20200827_191147;-0.215;5.239;8.056;-0.000;-0.001;0.006;
20200827_191148;-0.139;5.279;8.056;-0.001;-0.003;0.004;
20200827_191148;-0.242;5.234;8.061;-0.000;-0.005;-0.010;
20200827_191148;-0.211;5.231;8.090;-0.000;0.004;0.027;
20200827_191148;-0.182;5.277;8.056;0.001;-0.008;-0.002;
20200827_191148;-0.175;5.253;8.064;0.001;0.000;0.023;
20200827_191148;-0.127;5.246;8.059;0.001;0.006;0.032;
20200827_191148;-0.194;5.253;8.078;0.002;-0.001;-0.002;
20200827_191148;-0.170;5.255;8.059;0.001;-0.003;0.003;
20200827_191148;-0.065;5.291;8.040;-0.000;-0.007;-0.011;
20200827_191148;-0.105;5.282;8.037;-0.001;-0.008;-0.036;
20200827_191149;-0.172;5.215;8.083;-0.000;-0.002;-0.026;
20200827_191149;-0.211;5.210;8.076;0.001;0.005;-0.000;
20200827_191149;-0.177;5.227;8.068;-0.000;0.004;0.003;
20200827_191149;-0.163;5.260;8.033;0.001;0.008;0.013;
20200827_191149;-0.115;5.267;8.061;0.001;0.012;0.013;
20200827_191149;-0.148;5.243;8.068;0.002;0.018;0.009;
20200827_191149;-0.096;5.239;8.064;0.002;0.024;0.018;
20200827_191149;-0.206;5.260;8.037;0.001;0.028;0.011;
20200827_191149;-0.239;5.262;8.054;0.002;0.027;0.013;
20200827_191150;-0.326;5.250;8.054;0.002;0.020;0.002;
20200827_191150;-0.184;5.231;8.054;0.002;0.025;0.028;
20200827_191150;-0.247;5.267;8.042;0.001;0.033;0.034;
20200827_191150;-0.340;5.318;8.035;0.002;0.014;-0.019;
20200827_191150;-0.488;5.303;8.013;0.001;0.005;-0.021;
20200827_191150;-0.436;5.222;8.064;-0.000;-0.003;0.002;
20200827_191150;-0.285;5.212;8.061;0.001;-0.006;0.013;
20200827_191150;-0.259;5.286;8.025;-0.000;-0.008;0.005;
20200827_191150;-0.285;5.315;8.006;0.001;-0.006;-0.000;
20200827_191151;-0.261;5.258;8.052;-0.000;-0.004;0.014;
20200827_191151;-0.266;5.301;8.040;-0.000;-0.007;0.001;
20200827_191151;-0.378;5.325;8.023;-0.004;-0.048;-0.121;
20200827_191151;-0.412;5.294;8.013;-0.003;-0.069;-0.152;
20200827_191151;-0.907;5.298;8.061;-0.005;-0.159;-0.308;
20200827_191151;-0.558;5.004;8.090;-0.001;-0.239;-0.384;
20200827_191151;-0.433;5.064;8.071;0.007;-0.208;-0.264;
20200827_191151;0.194;5.215;8.088;0.008;-0.098;-0.078;
20200827_191151;-0.134;5.227;8.033;0.004;-0.045;0.003;
20200827_191151;0.005;5.401;7.942;-0.000;-0.076;-0.166;
20200827_191152;-0.395;5.143;8.061;0.006;-0.196;-0.505;
20200827_191152;-0.919;5.021;8.191;0.013;-0.227;-0.584;
20200827_191152;-0.658;4.949;8.109;0.021;-0.161;-0.335;
20200827_191152;-0.278;5.914;8.133;-0.000;-0.021;-0.035;
20200827_191152;0.036;6.007;7.405;0.003;-0.114;-0.348;
20200827_191152;-0.330;5.906;7.319;0.029;-0.218;-0.742;
20200827_191152;-0.587;5.945;7.137;0.029;-0.206;-0.753;
20200827_191152;0.704;5.983;9.768;0.038;-0.289;-0.786;
20200827_191152;-0.694;4.575;6.797;-0.044;-0.133;-0.600;
20200827_191153;-0.814;5.854;9.385;-0.135;-0.185;-0.743;
20200827_191153;-1.906;5.069;8.327;-0.041;-0.033;-0.385;
20200827_191153;-3.819;6.294;6.438;0.070;-0.162;-0.349;
20200827_191153;-3.235;3.244;9.239;0.004;-0.084;0.033;
20200827_191153;-2.349;4.020;8.150;0.079;-0.003;0.657;
20200827_191153;-0.622;4.456;8.437;-0.048;0.078;0.898;
20200827_191153;-0.867;4.719;4.808;0.088;0.173;0.932;
20200827_191153;-0.290;5.306;7.080;0.033;0.112;0.512;
20200827_191153;0.074;5.016;7.132;0.001;0.001;0.072;
20200827_191153;0.041;2.495;8.009;-0.053;-0.064;0.054;
20200827_191154;-1.298;5.318;6.572;0.060;0.038;0.406;
20200827_191154;1.097;2.926;8.337;-0.042;0.097;0.707;
20200827_191154;0.582;5.564;7.503;0.015;0.129;0.575;
20200827_191154;-0.022;5.033;8.248;-0.026;0.155;0.630;
20200827_191154;2.890;3.668;8.796;0.060;0.173;0.716;
20200827_191154;0.567;5.485;9.033;-0.005;0.117;0.736;
20200827_191154;0.318;3.907;7.269;0.042;0.174;0.574;
20200827_191154;0.912;4.896;8.171;0.013;0.142;0.465;
20200827_191154;2.028;3.792;7.537;-0.028;0.021;0.258;
20200827_191155;1.731;4.214;8.909;-0.002;0.002;0.068;
20200827_191155;1.630;4.594;7.975;0.002;-0.004;0.013;
20200827_191155;1.470;5.136;8.073;0.019;0.038;0.066;
20200827_191155;1.401;5.567;8.198;0.056;0.108;0.062;
20200827_191155;2.081;2.978;8.511;-0.004;0.045;0.098;
20200827_191155;2.114;3.752;8.423;0.013;-0.078;-0.318;
20200827_191155;1.152;4.144;8.435;-0.004;-0.090;-0.450;
20200827_191155;0.589;5.176;7.896;0.001;-0.094;-0.375;
20200827_191155;0.486;5.107;8.169;-0.017;-0.083;-0.185;
20200827_191156;0.958;4.839;8.210;-0.017;-0.065;-0.013;
20200827_191156;0.941;4.413;8.363;-0.007;-0.020;0.162;
20200827_191156;1.669;4.300;8.492;-0.013;-0.012;0.162;
20200827_191156;0.862;4.298;8.559;-0.002;0.000;0.111;
20200827_191156;1.372;4.441;8.528;-0.001;0.022;0.235;
20200827_191156;1.456;4.575;8.384;0.013;0.053;0.276;
20200827_191156;1.630;4.970;8.064;0.020;0.151;0.595;
20200827_191156;2.191;4.621;8.219;0.014;0.166;0.669;
20200827_191156;2.428;4.635;8.322;-0.000;0.070;0.314;
20200827_191156;2.267;4.470;8.296;-0.010;-0.028;-0.119;
20200827_191157;2.016;4.314;8.447;-0.025;-0.110;-0.460;
20200827_191157;1.681;5.131;8.595;-0.007;-0.100;-0.335;
20200827_191157;1.693;5.229;7.707;0.002;-0.048;-0.235;
20200827_191157;1.547;5.392;7.870;0.007;-0.005;-0.132;
20200827_191157;1.425;5.301;7.853;0.015;0.043;0.006;
20200827_191157;1.456;5.234;7.968;0.013;0.071;0.101;
20200827_191157;1.578;4.657;8.519;0.007;0.057;0.069;
20200827_191157;1.403;4.592;8.217;0.019;0.020;-0.047;
20200827_191157;1.346;4.690;8.291;0.017;0.021;-0.031;
20200827_191158;1.293;4.894;8.147;0.016;0.027;0.013;
20200827_191158;1.178;4.470;8.224;-0.001;0.054;0.119;
20200827_191158;1.381;4.295;8.722;0.003;0.042;0.172;
20200827_191158;1.563;3.895;8.648;-0.005;-0.011;0.005;
20200827_191158;1.484;4.140;8.545;-0.002;-0.015;-0.014;
20200827_191158;1.314;4.549;8.619;0.014;0.049;0.150;
20200827_191158;1.829;4.571;8.191;0.014;0.134;0.405;
20200827_191158;2.267;4.594;8.272;0.033;0.145;0.362;
20200827_191158;1.918;4.695;8.236;0.039;0.100;0.113;
20200827_191159;1.379;4.796;8.315;0.008;-0.035;-0.320;
20200827_191159;1.295;5.301;8.145;-0.008;-0.102;-0.394;
20200827_191159;1.015;5.248;7.793;-0.024;-0.157;-0.497;
20200827_191159;1.001;5.423;7.961;-0.031;-0.157;-0.442;
20200827_191159;0.958;5.191;7.942;-0.024;-0.101;-0.248;
20200827_191159;1.034;5.152;8.088;-0.016;-0.027;-0.010;
20200827_191159;1.252;4.978;8.236;-0.017;-0.002;0.075;
20200827_191159;1.207;4.697;8.301;-0.009;-0.002;0.052;
20200827_191159;1.173;4.681;8.387;-0.004;0.021;0.123;
20200827_191159;1.314;4.769;8.274;0.007;0.039;0.190;
20200827_191200;1.429;4.755;8.203;0.009;0.042;0.182;
20200827_191200;1.508;4.968;8.437;0.009;0.045;0.184;
20200827_191200;1.595;4.183;8.425;0.007;0.059;0.184;
20200827_191200;1.676;4.113;8.622;0.009;0.032;0.071;
20200827_191200;1.635;4.298;8.485;0.006;0.004;-0.054;
20200827_191200;1.609;4.987;8.176;0.016;0.022;-0.011;
20200827_191200;1.504;4.949;8.107;0.008;0.016;-0.067;
20200827_191200;1.302;5.088;8.124;0.007;-0.008;-0.155;
20200827_191200;1.192;5.037;8.176;0.002;-0.023;-0.162;
20200827_191201;1.137;5.073;8.073;0.002;-0.015;-0.120;
20200827_191201;1.190;5.124;8.092;0.004;-0.012;-0.094;
20200827_191201;1.185;4.865;8.238;-0.004;0.009;-0.026;
20200827_191201;1.391;4.460;8.420;0.003;0.010;-0.035;
20200827_191201;0.792;4.245;8.490;0.004;0.014;-0.045;
20200827_191201;0.697;4.673;8.361;-0.005;-0.028;-0.049;
20200827_191201;1.216;5.037;8.143;-0.013;-0.069;-0.112;
20200827_191201;1.190;5.131;8.140;-0.019;-0.096;-0.220;
20200827_191201;1.109;4.937;8.150;-0.008;-0.051;-0.138;
20200827_191201;1.329;4.942;8.265;0.005;0.025;0.030;
20200827_191202;1.142;5.057;8.109;0.016;0.057;0.058;
20200827_191202;0.984;4.958;8.258;0.016;0.069;0.051;
20200827_191202;-1.719;2.777;10.056;-0.085;0.070;-0.002;
20200827_191202;2.636;4.472;8.399;0.006;0.035;0.236;
20200827_191202;1.434;5.344;8.478;0.014;0.025;0.057;
20200827_191202;1.324;4.745;8.394;0.005;0.014;-0.061;
20200827_191202;0.843;4.788;8.212;0.014;0.027;-0.070;
20200827_191202;0.637;4.985;8.260;0.004;0.017;0.016;
20200827_191202;0.790;4.946;8.169;-0.009;-0.033;-0.034;
20200827_191203;1.037;4.920;8.145;-0.018;-0.054;-0.014;
20200827_191203;1.104;4.891;8.258;-0.018;-0.051;-0.006;
20200827_191203;1.190;4.808;8.277;-0.014;-0.027;0.074;
20200827_191203;1.286;4.774;8.298;-0.011;-0.008;0.116;
20200827_191203;1.154;4.752;8.286;-0.014;-0.024;0.086;
20200827_191203;1.255;4.879;8.219;-0.025;-0.059;0.049;
20200827_191203;1.559;4.891;8.155;-0.031;-0.081;0.008;
20200827_191203;1.645;4.810;8.215;-0.031;-0.086;-0.030;
20200827_191203;1.458;4.724;8.267;-0.027;-0.069;0.013;
20200827_191204;1.235;4.707;8.286;-0.038;-0.099;0.019;
20200827_191204;2.935;4.226;8.373;-0.038;-0.097;0.072;
20200827_191204;3.024;4.178;8.399;0.009;0.065;0.198;
20200827_191204;1.760;4.662;8.265;0.020;0.035;-0.092;
20200827_191204;1.542;4.724;8.207;0.008;-0.005;-0.125;
20200827_191204;2.318;4.657;8.286;0.021;0.049;0.036;
20200827_191204;2.069;4.626;8.282;0.031;0.073;-0.043;
20200827_191204;1.358;4.748;8.267;0.030;0.067;-0.088;
20200827_191204;1.238;4.664;8.315;0.029;0.070;-0.021;
20200827_191204;1.271;4.693;8.274;0.022;0.064;0.019;
20200827_191205;1.152;4.817;8.238;0.017;0.034;-0.029;
20200827_191205;1.171;4.901;8.191;0.012;0.030;0.009;
20200827_191205;1.085;4.913;8.186;0.006;0.018;0.028;
20200827_191205;1.130;4.848;8.253;-0.003;-0.002;0.040;
20200827_191205;1.111;4.831;8.226;-0.013;-0.029;0.037;
20200827_191205;1.166;4.851;8.210;-0.021;-0.052;0.028;
20200827_191205;1.156;4.841;8.224;-0.031;-0.081;0.036;
20200827_191205;2.456;4.314;8.375;-0.029;-0.062;0.101;
20200827_191205;2.097;4.525;8.361;0.007;0.032;0.099;
20200827_191206;1.480;4.812;8.241;0.008;0.022;0.009;
20200827_191206;1.616;4.767;8.159;0.017;0.066;0.150;
20200827_191206;1.731;4.530;8.231;0.019;0.091;0.252;
20200827_191206;2.119;4.381;8.401;0.025;0.087;0.204;
20200827_191206;2.090;4.480;8.356;0.033;0.079;0.070;
20200827_191206;1.834;4.626;8.270;0.044;0.095;0.063;
20200827_191206;1.657;4.779;8.198;0.052;0.111;0.082;
20200827_191206;1.441;4.872;8.167;0.045;0.076;-0.001;
20200827_191206;1.168;4.978;8.131;0.030;0.044;-0.044;
20200827_191206;1.123;5.006;8.138;0.012;0.015;-0.032;
20200827_191207;1.192;4.968;8.162;-0.005;-0.007;0.017;
20200827_191207;1.355;4.891;8.203;-0.019;-0.027;0.032;
20200827_191207;1.386;4.779;8.255;-0.027;-0.045;0.024;
20200827_191207;1.484;4.683;8.279;-0.034;-0.057;0.026;
20200827_191207;1.585;4.635;8.296;-0.038;-0.067;0.025;
20200827_191207;1.578;4.594;8.289;-0.045;-0.079;0.018;
20200827_191207;1.618;4.621;8.258;-0.050;-0.086;0.038;
20200827_191207;1.551;4.602;8.284;-0.068;-0.116;0.043;
20200827_191207;1.549;4.583;8.229;-0.091;-0.147;0.089;
20200827_191208;2.737;3.953;8.375;-0.112;-0.185;0.123;
20200827_191208;5.001;2.983;8.633;-0.024;0.003;0.225;
20200827_191208;2.255;4.269;8.468;0.026;0.050;-0.040;
20200827_191208;1.604;4.616;8.210;0.015;0.026;0.003;
20200827_191208;2.210;4.417;8.272;-0.004;0.026;0.183;
20200827_191208;2.464;4.178;8.284;-0.020;-0.005;0.169;
20200827_191208;2.780;4.037;8.315;-0.025;-0.015;0.146;
20200827_191208;2.899;4.010;8.334;-0.024;-0.023;0.075;
20200827_191208;2.835;4.029;8.334;-0.014;-0.015;0.049;
20200827_191208;2.741;4.037;8.344;-0.009;-0.004;0.058;
20200827_191209;2.873;3.917;8.361;-0.008;0.001;0.089;
20200827_191209;2.983;3.836;8.368;-0.003;0.005;0.063;
20200827_191209;2.957;3.709;8.430;0.003;0.013;0.044;
20200827_191209;2.816;3.754;8.430;0.015;0.035;0.099;
20200827_191209;2.799;3.747;8.440;0.022;0.060;0.178;
20200827_191209;2.974;3.757;8.387;0.025;0.074;0.242;
20200827_191209;3.215;3.785;8.375;0.033;0.080;0.233;
20200827_191209;3.203;3.879;8.315;0.046;0.080;0.169;
20200827_191209;3.010;4.003;8.294;0.054;0.068;0.058;
20200827_191210;2.727;3.922;8.344;0.050;0.059;0.028;
20200827_191210;2.717;3.826;8.382;0.044;0.068;0.116;
20200827_191210;2.794;3.905;8.380;0.042;0.080;0.207;
20200827_191210;2.911;3.814;8.423;0.024;0.041;0.099;
20200827_191210;2.761;3.773;8.432;0.005;-0.004;-0.049;
20200827_191210;2.741;3.845;8.380;0.003;0.010;0.046;
20200827_191210;2.892;3.876;8.368;0.002;0.018;0.096;
20200827_191210;2.978;3.898;8.337;-0.000;0.009;0.050;
20200827_191210;2.895;3.869;8.389;-0.007;-0.015;-0.047;
20200827_191210;2.808;3.876;8.373;-0.011;-0.021;-0.057;
20200827_191211;2.844;3.788;8.399;-0.014;-0.020;-0.029;
20200827_191211;2.856;3.682;8.452;-0.017;-0.021;-0.021;
20200827_191211;2.866;3.615;8.456;-0.017;-0.014;0.011;
20200827_191211;2.928;3.677;8.449;-0.018;-0.014;0.018;
20200827_191211;2.959;3.728;8.406;-0.016;-0.011;0.025;
20200827_191211;3.062;3.749;8.406;-0.013;-0.006;0.033;
20200827_191211;3.048;3.675;8.413;-0.009;-0.005;0.017;
20200827_191211;2.964;3.668;8.435;-0.005;-0.006;-0.007;
20200827_191211;2.935;3.634;8.444;-0.007;-0.005;0.011;
20200827_191212;3.017;3.613;8.435;-0.009;-0.006;0.015;
20200827_191212;3.026;3.615;8.420;-0.009;-0.006;0.017;
20200827_191212;3.067;3.642;8.432;-0.007;-0.003;0.017;
20200827_191212;3.089;3.610;8.435;-0.003;-0.002;0.006;
20200827_191212;3.079;3.565;8.440;0.001;0.000;-0.001;
20200827_191212;3.065;3.589;8.444;0.005;0.004;0.001;
20200827_191212;3.010;3.637;8.418;0.005;0.003;-0.008;
20200827_191212;3.002;3.658;8.396;0.003;0.003;0.006;
20200827_191212;3.005;3.670;8.396;0.001;-0.001;-0.003;
20200827_191212;3.043;3.603;8.420;-0.000;-0.003;-0.009;
20200827_191213;3.074;3.587;8.430;0.002;0.002;0.003;
20200827_191213;3.019;3.615;8.437;0.005;0.002;-0.011;
20200827_191213;3.019;3.625;8.425;0.005;0.005;-0.000;
20200827_191213;3.007;3.634;8.430;0.005;0.005;-0.001;
20200827_191213;2.998;3.656;8.413;0.005;0.004;-0.003;
20200827_191213;3.005;3.649;8.420;0.006;0.004;-0.001;
20200827_191213;2.995;3.649;8.442;0.005;0.003;-0.002;
20200827_191213;3.017;3.646;8.411;0.006;0.004;-0.000;
20200827_191213;2.988;3.654;8.428;0.005;0.005;-0.001;
20200827_191214;3.002;3.670;8.423;0.007;0.008;-0.001;
20200827_191214;2.983;3.675;8.432;0.008;0.008;-0.000;
20200827_191214;2.940;3.682;8.408;0.011;0.009;-0.001;
20200827_191214;2.962;3.711;8.411;0.009;0.009;0.003;
20200827_191214;2.952;3.711;8.404;0.009;0.008;-0.007;
20200827_191214;2.926;3.721;8.416;0.008;0.009;-0.001;
20200827_191214;2.911;3.730;8.413;0.007;0.005;-0.000;
20200827_191214;2.911;3.737;8.399;0.002;0.002;0.002;
20200827_191214;2.945;3.721;8.408;-0.000;0.002;0.009;
20200827_191214;2.921;3.713;8.428;-0.001;-0.002;-0.001;
20200827_191215;2.962;3.711;8.413;-0.001;-0.001;0.001;
20200827_191215;2.930;3.709;8.411;-0.001;-0.001;-0.000;
20200827_191215;2.954;3.706;8.423;-0.001;0.000;0.005;
20200827_191215;2.928;3.730;8.432;-0.001;-0.003;-0.005;
20200827_191215;2.940;3.721;8.420;-0.001;-0.001;0.006;
20200827_191215;2.957;3.685;8.425;-0.003;-0.002;0.003;
20200827_191215;2.969;3.689;8.411;-0.000;-0.002;-0.000;
20200827_191215;2.974;3.699;8.425;0.001;0.002;0.002;
20200827_191215;2.947;3.701;8.418;0.002;0.002;-0.006;
20200827_191215;2.957;3.694;8.389;0.003;0.003;-0.001;
20200827_191216;2.952;3.697;8.413;0.004;0.003;-0.007;
20200827_191216;2.895;3.713;8.416;0.004;0.004;-0.000;
20200827_191216;2.938;3.747;8.413;-0.000;0.002;0.003;
20200827_191216;2.897;3.716;8.416;-0.002;-0.002;-0.003;
20200827_191216;2.978;3.713;8.416;-0.000;0.002;0.014;
20200827_191216;2.957;3.711;8.425;-0.001;-0.001;-0.007;
20200827_191216;2.916;3.718;8.413;-0.000;0.000;0.003;
20200827_191216;2.990;3.706;8.423;-0.000;0.001;-0.001;
20200827_191216;2.942;3.687;8.428;0.005;0.003;-0.002;
20200827_191217;2.933;3.718;8.432;0.006;0.006;0.005;
20200827_191217;2.942;3.725;8.408;0.005;0.005;-0.005;
20200827_191217;2.909;3.745;8.408;0.006;0.004;-0.008;
20200827_191217;2.928;3.740;8.411;0.006;0.006;0.003;
20200827_191217;2.892;3.733;8.420;0.006;0.006;0.002;
20200827_191217;2.890;3.735;8.425;0.005;0.004;-0.002;
20200827_191217;2.871;3.795;8.396;0.000;0.001;-0.001;
20200827_191217;2.919;3.757;8.394;-0.002;0.001;0.012;
20200827_191217;2.928;3.759;8.418;-0.002;-0.003;-0.007;
20200827_191217;2.899;3.759;8.411;-0.001;-0.001;-0.001;
20200827_191218;2.954;3.728;8.423;0.000;-0.001;-0.006;
20200827_191218;2.897;3.733;8.401;0.003;0.003;-0.003;
20200827_191218;2.919;3.754;8.413;0.008;0.005;-0.002;
20200827_191218;2.844;3.821;8.406;0.006;0.004;-0.012;
20200827_191218;2.861;3.814;8.394;0.002;0.003;0.004;
20200827_191218;2.866;3.812;8.394;0.000;-0.000;-0.007;
20200827_191218;2.854;3.824;8.413;0.000;-0.000;0.001;
20200827_191218;2.875;3.797;8.399;-0.001;-0.002;-0.004;
20200827_191218;2.883;3.761;8.411;0.000;0.001;0.009;
20200827_191219;2.887;3.800;8.413;0.001;0.001;-0.006;
20200827_191219;2.837;3.814;8.423;0.002;0.002;-0.000;
20200827_191219;2.887;3.826;8.396;0.002;0.001;-0.006;
20200827_191219;2.828;3.802;8.406;0.001;0.002;-0.008;
20200827_191219;2.887;3.785;8.411;0.005;0.007;0.012;
20200827_191219;2.840;3.819;8.377;0.002;0.002;-0.007;
20200827_191219;2.816;3.859;8.394;0.002;0.003;0.001;
20200827_191219;2.813;3.857;8.389;0.002;0.003;0.007;
20200827_191219;2.847;3.855;8.392;-0.004;-0.002;0.003;
20200827_191220;2.820;3.824;8.392;-0.006;-0.005;-0.001;
20200827_191220;2.856;3.828;8.368;-0.009;-0.005;0.012;
20200827_191220;2.866;3.792;8.396;-0.010;-0.010;-0.001;
20200827_191220;2.885;3.800;8.416;-0.008;-0.008;0.004;
20200827_191220;2.861;3.795;8.406;-0.007;-0.007;-0.000;
20200827_191220;2.875;3.773;8.423;-0.007;-0.005;-0.001;
20200827_191220;2.892;3.778;8.396;-0.005;-0.004;-0.000;
20200827_191220;2.875;3.804;8.392;-0.005;-0.003;-0.001;
20200827_191220;2.854;3.814;8.387;-0.004;-0.005;-0.003;
20200827_191220;2.859;3.800;8.392;-0.006;-0.004;0.002;
20200827_191221;2.883;3.792;8.392;-0.006;-0.008;-0.001;
20200827_191221;2.887;3.761;8.408;-0.008;-0.007;-0.000;
20200827_191221;2.899;3.785;8.406;-0.006;-0.007;0.005;
20200827_191221;2.885;3.764;8.418;-0.008;-0.008;-0.002;
20200827_191221;2.909;3.745;8.413;-0.006;-0.005;0.002;
20200827_191221;2.916;3.725;8.416;-0.006;-0.003;0.003;
20200827_191221;2.897;3.759;8.411;-0.001;-0.001;-0.003;
20200827_191221;2.907;3.757;8.416;0.000;-0.002;0.001;
20200827_191221;2.909;3.749;8.406;-0.001;-0.001;0.001;
20200827_191222;2.907;3.747;8.411;-0.001;0.000;0.001;
20200827_191222;2.930;3.740;8.418;-0.001;0.000;-0.003;
20200827_191222;2.911;3.737;8.420;0.004;0.004;-0.001;
20200827_191222;2.954;3.721;8.416;0.008;0.008;0.006;
20200827_191222;2.892;3.737;8.399;0.010;0.006;-0.012;
20200827_191222;2.926;3.752;8.406;0.012;0.009;0.000;
20200827_191222;2.887;3.792;8.399;0.013;0.011;-0.013;
20200827_191222;2.890;3.804;8.408;0.016;0.014;-0.008;
20200827_191222;2.890;3.761;8.416;0.019;0.015;-0.004;
20200827_191223;2.835;3.831;8.420;0.022;0.017;-0.016;
20200827_191223;2.784;3.886;8.387;0.017;0.016;-0.013;
20200827_191223;2.777;3.905;8.384;0.016;0.016;0.002;
20200827_191223;2.782;3.938;8.368;0.020;0.018;0.004;
20200827_191223;2.768;3.912;8.384;0.017;0.015;-0.010;
20200827_191223;2.780;3.922;8.396;0.018;0.016;0.001;
20200827_191223;2.725;3.965;8.382;0.016;0.012;-0.013;
20200827_191223;2.722;3.967;8.361;0.012;0.010;-0.003;
20200827_191223;2.703;3.986;8.368;0.013;0.012;0.005;
20200827_191223;2.684;3.986;8.370;0.005;0.007;-0.002;
20200827_191224;2.737;4.003;8.370;0.003;0.004;-0.003;
20200827_191224;2.674;3.986;8.389;0.003;0.002;-0.003;
20200827_191224;2.717;3.989;8.370;0.001;0.004;0.006;
20200827_191224;2.691;3.984;8.373;0.000;-0.003;-0.013;
20200827_191224;2.665;4.001;8.368;-0.004;-0.002;0.009;
20200827_191224;2.737;3.979;8.375;-0.010;-0.008;0.001;
20200827_191224;2.744;3.950;8.363;-0.010;-0.009;0.001;
20200827_191224;2.789;3.938;8.389;-0.008;-0.008;0.003;
20200827_191224;2.780;3.922;8.401;-0.005;-0.005;-0.004;
20200827_191225;2.765;3.905;8.401;-0.004;-0.004;-0.002;
20200827_191225;2.772;3.929;8.380;-0.003;-0.003;-0.001;
20200827_191225;2.784;3.934;8.375;-0.002;-0.002;-0.001;
20200827_191225;2.761;3.929;8.392;0.000;-0.001;-0.005;
20200827_191225;2.816;3.912;8.370;0.001;0.002;0.002;
20200827_191225;2.761;3.910;8.380;0.008;0.005;-0.006;
20200827_191225;2.765;3.934;8.399;0.010;0.010;0.000;
20200827_191225;2.720;3.979;8.375;0.008;0.004;-0.019;
20200827_191225;2.689;3.996;8.368;0.006;0.006;0.001;
20200827_191225;2.691;3.977;8.373;0.002;0.004;0.012;
20200827_191226;2.710;3.984;8.375;-0.003;-0.006;-0.010;
20200827_191226;2.734;3.955;8.368;-0.004;-0.001;0.014;
20200827_191226;2.794;3.869;8.416;-0.003;-0.001;0.010;
20200827_191226;2.772;3.936;8.382;0.000;0.000;0.001;
20200827_191226;2.751;3.950;8.375;0.003;0.004;-0.002;
20200827_191226;2.782;3.950;8.365;0.008;0.006;-0.006;
20200827_191226;2.758;3.934;8.384;0.010;0.009;-0.002;
20200827_191226;2.729;3.924;8.394;0.010;0.012;0.002;
20200827_191226;2.684;3.955;8.392;0.010;0.010;0.001;
20200827_191227;2.737;3.998;8.358;0.008;0.012;0.021;
20200827_191227;2.689;4.005;8.353;0.008;0.010;0.027;
20200827_191227;2.761;4.032;8.363;0.001;0.004;0.004;
20200827_191227;2.665;4.003;8.363;0.000;-0.002;-0.013;
20200827_191227;2.725;3.965;8.382;-0.002;-0.001;0.012;
20200827_191227;2.789;3.919;8.373;-0.003;-0.003;-0.001;
20200827_191227;2.813;3.924;8.382;0.008;0.005;-0.012;
20200827_191227;2.684;4.013;8.358;0.015;0.011;-0.007;
20200827_191227;2.643;4.101;8.351;0.005;-0.003;-0.051;
20200827_191227;2.562;4.056;8.361;-0.001;-0.007;-0.036;
20200827_191228;2.693;3.984;8.373;-0.002;0.002;0.020;
20200827_191228;2.749;3.967;8.389;-0.002;-0.002;0.008;
20200827_191228;2.636;3.998;8.384;-0.002;-0.005;-0.012;
20200827_191228;2.710;4.041;8.370;-0.004;-0.004;0.005;
20200827_191228;2.708;4.037;8.373;-0.005;-0.006;-0.002;
20200827_191228;2.686;4.001;8.351;-0.005;-0.006;0.000;
20200827_191228;2.693;3.967;8.382;-0.007;-0.007;0.003;
20200827_191228;2.734;3.936;8.387;-0.008;-0.008;0.004;
20200827_191228;2.756;3.965;8.387;-0.008;-0.005;0.006;
20200827_191229;2.775;3.962;8.375;-0.004;-0.005;-0.001;
20200827_191229;2.816;3.950;8.370;-0.002;-0.001;-0.003;
20200827_191229;2.976;3.800;8.418;0.013;0.009;-0.015;
20200827_191229;2.619;3.903;8.444;0.029;0.024;-0.033;
20200827_191229;2.535;4.094;8.392;0.001;-0.016;-0.100;
20200827_191229;2.672;4.101;8.317;-0.028;-0.062;-0.165;
20200827_191229;2.650;4.209;8.294;-0.037;-0.081;-0.203;
20200827_191229;2.770;4.101;8.310;-0.031;-0.071;-0.217;
20200827_191229;2.842;3.967;8.310;-0.011;-0.038;-0.157;
20200827_191229;2.488;4.262;8.289;0.034;0.038;0.005;
20200827_191230;2.449;4.283;8.272;0.045;0.075;0.128;
20200827_191230;2.471;4.231;8.274;0.051;0.093;0.192;
20200827_191230;2.389;4.111;8.384;0.033;0.066;0.156;
20200827_191230;2.689;3.965;8.464;0.013;0.025;0.068;
20200827_191230;2.500;3.977;8.454;-0.003;-0.021;-0.089;
20200827_191230;2.497;4.104;8.373;-0.002;-0.011;-0.037;
20200827_191230;2.540;4.195;8.253;-0.001;-0.011;-0.033;
20200827_191230;2.428;4.379;8.250;-0.014;-0.032;-0.092;
20200827_191230;2.468;4.259;8.291;-0.017;-0.028;-0.056;
20200827_191231;2.636;4.175;8.286;-0.008;-0.005;0.015;
20200827_191231;2.413;4.372;8.310;0.010;0.029;0.087;
20200827_191231;2.619;4.140;8.358;0.004;0.016;0.058;
20200827_191231;2.478;4.128;8.373;0.004;0.012;0.038;
20200827_191231;2.504;4.113;8.399;-0.013;-0.010;0.010;
20200827_191231;2.313;4.257;8.337;-0.031;-0.032;-0.008;
20200827_191231;2.758;4.001;8.351;-0.047;-0.048;0.003;
20200827_191231;2.746;4.032;8.356;-0.032;-0.029;0.025;
20200827_191231;2.703;4.010;8.396;-0.030;-0.029;0.009;
20200827_191232;2.799;3.893;8.408;-0.021;-0.012;0.045;
20200827_191232;2.741;3.886;8.420;-0.025;-0.025;-0.003;
20200827_191232;2.782;3.929;8.384;-0.023;-0.022;0.010;
20200827_191232;2.904;3.850;8.387;-0.023;-0.024;-0.002;
20200827_191232;2.911;3.852;8.387;-0.010;-0.006;0.015;
20200827_191232;2.828;3.778;8.420;-0.004;-0.007;-0.012;
20200827_191232;2.902;3.694;8.444;0.001;0.000;0.001;
20200827_191232;3.010;3.742;8.423;0.014;0.016;0.008;
20200827_191232;2.722;4.029;8.358;0.025;0.017;-0.036;
20200827_191232;2.746;3.979;8.353;0.024;0.015;-0.028;
20200827_191233;2.641;4.005;8.356;0.019;0.018;0.001;
20200827_191233;2.634;3.989;8.351;0.008;0.006;-0.003;
20200827_191233;2.693;3.936;8.377;-0.005;-0.007;-0.007;
20200827_191233;2.658;4.051;8.351;-0.012;-0.013;-0.003;
20200827_191233;2.863;3.924;8.358;-0.016;-0.021;-0.015;
20200827_191233;2.885;3.843;8.418;-0.010;-0.024;-0.053;
20200827_191233;2.775;3.974;8.384;-0.002;-0.012;-0.048;
20200827_191233;2.789;3.766;8.464;0.005;0.008;-0.004;
20200827_191233;2.552;4.087;8.344;0.006;0.016;0.037;
20200827_191233;2.416;4.175;8.308;-0.020;-0.016;0.014;
20200827_191234;2.902;3.819;8.401;-0.030;-0.029;0.025;
20200827_191234;3.163;3.601;8.461;-0.004;0.002;0.034;
20200827_191234;2.787;3.912;8.382;0.002;-0.002;-0.020;
20200827_191234;2.727;4.008;8.356;0.005;0.006;0.004;
20200827_191234;2.907;3.883;8.387;0.009;0.016;0.034;
20200827_191234;2.772;3.876;8.394;0.006;0.007;-0.012;
20200827_191234;2.662;3.958;8.368;0.006;0.008;0.003;
20200827_191234;2.734;3.941;8.373;-0.005;-0.004;0.004;
20200827_191234;2.804;3.931;8.373;-0.003;-0.004;0.002;
20200827_191235;2.859;3.847;8.373;0.001;0.000;-0.004;
20200827_191235;2.758;3.926;8.356;0.004;0.000;-0.017;
20200827_191235;2.655;4.005;8.363;-0.001;-0.002;-0.005;
20200827_191235;2.871;3.711;8.437;-0.006;-0.006;0.009;
20200827_191235;2.619;3.955;8.346;-0.004;-0.006;-0.005;
20200827_191235;2.818;3.938;8.334;0.000;0.000;0.005;
20200827_191235;2.794;3.883;8.363;0.003;0.006;0.005;
20200827_191235;2.761;3.958;8.389;0.006;0.006;-0.001;
20200827_191235;2.844;3.812;8.411;0.003;0.000;-0.006;
20200827_191236;2.830;3.840;8.394;0.001;-0.002;-0.016;
20200827_191236;2.772;3.852;8.384;-0.003;-0.004;-0.008;
20200827_191236;2.715;4.029;8.387;-0.003;-0.003;0.003;
20200827_191236;2.808;3.881;8.370;-0.004;-0.004;0.011;
20200827_191236;2.784;3.886;8.370;-0.008;-0.005;0.010;
20200827_191236;2.796;3.836;8.396;-0.006;-0.007;-0.004;
20200827_191236;2.902;3.855;8.380;-0.002;0.001;0.011;
20200827_191236;2.849;3.852;8.408;0.003;0.001;-0.007;
20200827_191236;2.828;3.847;8.408;0.005;0.006;-0.001;
20200827_191236;2.816;3.869;8.399;0.004;0.002;-0.005;
20200827_191237;2.823;3.869;8.399;0.002;0.002;-0.002;
20200827_191237;2.830;3.867;8.399;0.005;0.004;-0.002;
20200827_191237;2.813;3.886;8.382;0.008;0.007;-0.004;
20200827_191237;2.808;3.881;8.384;0.009;0.010;0.001;
20200827_191237;2.796;3.881;8.404;0.010;0.009;-0.003;
20200827_191237;2.670;4.013;8.368;0.005;0.006;-0.003;
20200827_191237;2.765;3.960;8.375;0.005;0.010;0.013;
20200827_191237;2.801;3.874;8.399;0.004;0.005;0.001;
20200827_191237;2.746;3.979;8.384;0.005;0.002;-0.008;
20200827_191238;2.782;3.917;8.406;0.008;0.008;0.002;
20200827_191238;2.713;4.041;8.413;0.001;0.005;0.003;
20200827_191238;2.646;4.085;8.368;0.011;0.014;0.010;
20200827_191238;2.732;3.962;8.313;0.005;0.010;0.009;
20200827_191238;2.780;3.929;8.380;0.001;0.002;0.008;
20200827_191238;2.799;3.874;8.346;0.002;0.001;-0.003;
20200827_191238;3.053;3.776;8.461;-0.005;-0.006;0.013;
20200827_191238;2.693;4.003;8.380;0.005;0.001;-0.021;
20200827_191238;2.895;3.699;8.373;-0.003;-0.010;-0.012;
20200827_191239;2.787;3.804;8.411;0.000;0.004;0.018;
20200827_191239;2.588;4.144;8.454;0.001;-0.002;-0.005;
20200827_191239;2.710;4.056;8.377;-0.005;-0.001;0.005;
20200827_191239;2.890;3.802;8.394;-0.003;-0.002;0.005;
20200827_191239;2.942;3.670;8.389;-0.008;-0.015;-0.014;
20200827_191239;2.777;3.847;8.442;0.001;-0.004;-0.015;
20200827_191239;2.619;3.924;8.365;-0.013;-0.017;0.000;
20200827_191239;2.725;3.895;8.365;-0.004;-0.002;0.014;
20200827_191239;2.600;4.187;8.408;-0.004;-0.002;0.012;
20200827_191239;3.057;3.587;8.418;-0.011;-0.009;0.001;
20200827_191240;2.854;3.749;8.404;-0.008;-0.007;-0.001;
20200827_191240;2.986;3.673;8.399;-0.006;-0.011;-0.010;
20200827_191240;2.820;3.828;8.404;-0.004;-0.004;-0.002;
20200827_191240;2.916;3.584;8.368;-0.014;-0.017;-0.007;
20200827_191240;2.703;3.859;8.351;0.001;0.007;0.016;
20200827_191240;2.811;3.922;8.382;-0.005;-0.005;0.015;
20200827_191240;2.986;3.867;8.423;-0.008;-0.013;-0.010;
20200827_191240;2.806;3.819;8.392;-0.005;-0.008;-0.006;
20200827_191240;2.849;3.840;8.399;-0.005;-0.002;0.012;
20200827_191241;2.880;3.833;8.487;-0.002;-0.002;0.005;
20200827_191241;2.828;3.970;8.361;0.006;0.008;-0.007;
20200827_191241;2.909;3.809;8.380;0.003;0.000;0.002;
20200827_191241;2.930;3.749;8.411;0.005;0.004;-0.017;
20200827_191241;2.818;3.824;8.408;0.003;0.001;-0.012;
20200827_191241;2.852;3.855;8.399;0.005;0.005;-0.002;
20200827_191241;2.835;3.879;8.389;0.005;0.005;-0.001;
20200827_191241;2.796;3.864;8.375;0.004;0.004;-0.003;
20200827_191241;2.808;3.862;8.380;0.002;0.004;-0.001;
20200827_191242;2.830;3.855;8.389;0.002;0.001;0.000;
20200827_191242;2.830;3.869;8.368;0.001;0.002;0.002;
20200827_191242;2.806;3.852;8.375;0.002;0.002;-0.002;
20200827_191242;2.875;3.840;8.389;0.005;0.005;0.000;
20200827_191242;2.801;3.876;8.384;0.005;0.004;-0.007;
20200827_191242;2.813;3.869;8.382;0.006;0.008;0.004;
20200827_191242;2.720;4.063;8.408;0.005;0.007;-0.006;
20200827_191242;2.856;3.816;8.368;0.009;0.012;0.003;
20200827_191242;2.945;3.773;8.399;0.009;0.007;-0.010;
20200827_191243;2.660;3.989;8.351;0.005;0.004;-0.018;
20200827_191243;3.050;3.723;8.380;-0.001;0.004;0.016;
20200827_191243;2.935;3.687;8.440;0.004;0.002;-0.016;
20200827_191243;2.799;3.996;8.425;0.008;0.012;-0.005;
20200827_191243;2.602;4.008;8.310;0.012;0.013;0.003;
20200827_191243;2.729;4.022;8.377;0.003;0.011;0.022;
20200827_191243;2.768;3.778;8.363;-0.007;-0.015;-0.011;
20200827_191243;2.679;3.934;8.368;0.002;0.004;0.006;
20200827_191243;2.818;3.910;8.384;-0.008;-0.009;-0.003;
20200827_191243;2.722;3.950;8.389;-0.006;-0.008;-0.001;
20200827_191244;2.911;3.893;8.380;-0.005;-0.005;-0.002;
20200827_191244;2.763;3.871;8.392;0.000;-0.005;-0.022;
20200827_191244;2.820;3.869;8.396;0.002;0.002;0.002;
20200827_191244;2.758;3.931;8.380;0.003;0.000;-0.010;
20200827_191244;2.761;3.929;8.368;0.001;0.001;0.001;
20200827_191244;2.794;3.929;8.380;0.000;0.000;-0.002;
20200827_191244;2.799;3.924;8.382;0.001;0.002;0.004;
20200827_191244;2.782;3.900;8.384;0.002;0.001;-0.003;
20200827_191244;2.763;3.936;8.375;0.001;0.001;-0.003;
20200827_191245;2.770;3.953;8.363;0.002;0.004;0.000;
20200827_191245;2.751;3.910;8.368;0.003;0.004;-0.003;
20200827_191245;2.768;3.922;8.387;0.003;0.002;-0.005;
20200827_191245;2.756;3.929;8.377;0.004;0.004;0.000;
20200827_191245;2.751;3.926;8.375;0.003;0.004;-0.001;
20200827_191245;2.758;3.943;8.382;0.003;0.005;-0.001;
20200827_191245;2.761;3.941;8.387;0.004;0.006;0.001;
20200827_191245;2.751;3.936;8.387;0.005;0.005;-0.001;
20200827_191245;2.751;3.965;8.387;0.005;0.005;-0.005;
20200827_191245;2.710;3.965;8.356;0.005;0.006;0.000;
20200827_191246;2.725;3.984;8.368;0.003;0.004;-0.004;
20200827_191246;2.729;3.970;8.392;0.003;0.004;0.000;
20200827_191246;2.772;3.929;8.389;0.003;0.004;0.001;
20200827_191246;2.765;3.936;8.392;0.008;0.009;0.001;
20200827_191246;2.782;3.907;8.387;0.011;0.010;-0.004;
20200827_191246;2.677;3.977;8.380;0.014;0.013;-0.002;
20200827_191246;2.703;3.977;8.368;0.014;0.015;0.009;
20200827_191246;2.629;4.051;8.363;0.012;0.014;0.005;
20200827_191246;2.674;4.005;8.356;0.013;0.015;0.015;
20200827_191247;2.641;4.041;8.370;0.012;0.014;0.005;
20200827_191247;2.658;4.025;8.353;0.010;0.007;-0.021;
20200827_191247;2.629;4.032;8.346;0.012;0.013;0.006;
20200827_191247;2.612;4.058;8.351;0.017;0.026;0.038;
20200827_191247;2.820;3.931;8.404;0.022;0.023;0.001;
20200827_191247;2.567;4.075;8.344;0.030;0.025;-0.036;
20200827_191247;2.500;4.096;8.334;0.035;0.037;0.006;
20200827_191247;2.523;4.137;8.325;0.035;0.041;0.028;
20200827_191247;2.595;4.099;8.353;0.031;0.034;0.017;
20200827_191247;2.504;4.180;8.346;0.030;0.031;-0.004;
20200827_191248;2.476;4.243;8.356;0.031;0.021;-0.045;
20200827_191248;2.538;4.245;8.351;0.022;0.000;-0.111;
20200827_191248;2.452;4.384;8.270;0.022;-0.016;-0.181;
20200827_191248;2.492;4.518;8.272;0.012;-0.054;-0.351;
20200827_191248;2.157;4.602;8.291;-0.001;-0.102;-0.541;
20200827_191248;2.030;4.693;8.116;-0.025;-0.188;-0.839;
20200827_191248;1.494;4.623;8.253;-0.045;-0.279;-1.138;
20200827_191248;0.871;4.575;8.444;-0.045;-0.331;-1.311;
20200827_191248;0.359;4.642;8.507;-0.031;-0.306;-1.151;
20200827_191249;0.057;4.930;8.159;-0.019;-0.234;-0.841;
20200827_191249;-0.103;5.145;8.025;-0.012;-0.163;-0.493;
20200827_191249;0.199;5.136;8.131;-0.006;-0.098;-0.276;
20200827_191249;0.163;4.949;8.265;0.000;-0.049;-0.139;
20200827_191249;0.239;4.760;8.344;0.001;0.016;0.048;
20200827_191249;0.299;4.741;8.346;0.001;0.025;0.041;
20200827_191249;0.287;4.922;8.270;-0.001;0.008;-0.071;
20200827_191249;-0.077;5.078;8.155;-0.001;0.014;-0.080;
20200827_191249;-0.151;5.128;8.143;-0.001;0.000;-0.062;
20200827_191249;-0.237;5.042;8.183;0.000;-0.019;-0.049;
20200827_191250;-0.034;4.915;8.274;0.002;-0.020;-0.010;
20200827_191250;0.034;4.769;8.327;0.002;-0.007;0.036;
20200827_191250;0.271;4.815;8.332;0.001;-0.008;0.010;
20200827_191250;0.194;4.946;8.231;0.000;0.000;-0.020;
20200827_191250;-0.017;5.069;8.174;0.000;0.010;-0.018;
20200827_191250;-0.057;5.047;8.193;0.000;0.022;0.031;
20200827_191250;-0.029;4.997;8.236;0.001;0.014;0.029;
20200827_191250;0.024;4.920;8.258;0.000;-0.003;-0.012;
20200827_191250;-0.055;4.901;8.291;-0.001;-0.013;-0.034;
20200827_191251;0.045;4.922;8.253;0.001;-0.005;-0.010;
20200827_191251;0.170;4.985;8.226;0.001;-0.003;-0.014;
20200827_191251;0.132;4.973;8.238;0.000;0.013;-0.019;
20200827_191251;0.045;4.975;8.226;0.000;0.037;0.029;
20200827_191251;0.146;5.054;8.234;-0.004;-0.009;-0.158;
20200827_191251;-0.359;4.906;8.260;-0.003;0.014;-0.128;
20200827_191251;-0.242;4.767;8.298;0.000;0.060;0.034;
20200827_191251;-0.275;4.793;8.303;-0.001;0.076;0.082;
20200827_191251;-0.529;4.913;8.248;0.000;0.061;0.051;
20200827_191251;-0.373;5.104;8.150;0.000;0.021;-0.011;
20200827_191252;-0.651;5.112;8.126;0.000;0.006;-0.019;
20200827_191252;-0.108;5.064;8.181;0.001;0.008;0.037;
20200827_191252;-0.251;4.834;8.286;0.002;0.029;0.066;
20200827_191252;-0.060;4.784;8.296;0.000;0.027;0.013;
20200827_191252;-0.110;4.865;8.282;0.000;0.023;-0.062;
20200827_191252;-0.220;4.944;8.353;0.003;0.088;0.042;
20200827_191252;-0.510;5.073;8.203;0.002;0.105;0.131;
20200827_191252;-0.840;5.277;8.054;0.000;-0.001;-0.077;
20200827_191252;-0.570;5.126;8.188;-0.001;-0.084;-0.261;
20200827_191252;-0.400;4.954;8.205;-0.001;-0.051;-0.220;
20200827_191253;-0.931;4.843;8.253;0.000;0.038;0.010;
20200827_191253;-0.611;4.731;8.349;-0.001;0.018;0.012;
20200827_191253;-0.809;4.764;8.308;-0.001;0.007;-0.036;
20200827_191253;-0.663;4.966;7.942;-0.002;-0.033;-0.139;
20200827_191253;-0.804;5.042;8.179;0.003;-0.092;-0.157;
20200827_191253;-1.362;5.248;8.042;-0.005;-0.092;-0.017;
20200827_191253;-1.889;5.126;8.416;0.005;-0.024;0.033;
20200827_191253;-0.539;4.858;8.272;0.006;-0.074;-0.065;
20200827_191253;-0.910;4.642;8.315;0.009;-0.078;-0.100;
20200827_191254;-0.443;4.690;8.308;0.008;-0.039;0.071;
20200827_191254;0.101;4.985;8.229;0.008;-0.044;0.024;
20200827_191254;-0.503;5.023;8.205;0.002;-0.036;-0.036;
20200827_191254;-0.579;5.076;8.217;0.004;0.013;0.126;
20200827_191254;-0.381;4.860;8.229;-0.001;0.034;0.097;
20200827_191254;-0.445;4.882;8.327;0.003;0.011;0.030;
20200827_191254;0.045;4.877;8.262;0.000;0.023;0.107;
20200827_191254;-0.259;5.104;8.186;0.000;-0.011;-0.074;
20200827_191254;-0.620;4.987;8.090;0.002;0.008;0.035;
20200827_191255;-0.503;4.994;8.260;0.004;-0.009;0.002;
20200827_191255;-0.716;4.798;8.313;0.004;-0.016;0.031;
20200827_191255;0.309;4.903;8.262;0.005;-0.029;0.012;
20200827_191255;0.014;4.980;8.229;0.001;-0.023;-0.001;
20200827_191255;-0.280;4.918;8.248;0.000;-0.012;-0.006;
20200827_191255;-0.026;5.009;8.272;0.000;0.013;0.052;
20200827_191255;-0.048;5.013;8.234;0.002;0.001;0.030;
20200827_191255;-0.089;4.968;8.210;0.001;0.001;-0.003;
20200827_191255;-0.010;4.973;8.219;0.000;0.006;-0.003;
20200827_191255;-0.074;4.791;8.222;-0.002;0.002;-0.050;
20200827_191256;-0.280;4.872;8.222;-0.001;0.022;0.026;
20200827_191256;-0.105;4.954;8.258;0.000;0.017;0.016;
20200827_191256;-0.292;4.913;8.176;0.000;0.024;0.002;
20200827_191256;-0.220;4.990;8.236;-0.003;0.040;0.024;
20200827_191256;-0.134;4.992;8.193;0.000;0.036;0.009;
20200827_191256;-0.292;4.968;8.241;-0.001;0.034;-0.046;
20200827_191256;-0.407;4.978;8.229;-0.003;0.021;-0.087;
20200827_191256;-0.790;4.901;8.212;-0.001;0.010;-0.089;
20200827_191256;-0.615;4.865;8.279;0.000;-0.015;-0.063;
20200827_191257;-0.532;4.820;8.289;0.001;-0.001;0.010;
20200827_191257;-0.323;4.867;8.289;0.001;0.008;0.025;
20200827_191257;-0.464;4.887;8.248;-0.001;-0.006;-0.043;
20200827_191257;-0.634;4.922;8.231;0.000;0.000;-0.013;
20200827_191257;-0.622;4.925;8.238;0.001;-0.005;0.019;
20200827_191257;-0.503;4.903;8.250;0.003;-0.010;0.042;
20200827_191257;-0.407;4.891;8.246;0.004;-0.021;0.022;
20200827_191257;-0.445;4.908;8.246;0.001;-0.020;0.012;
20200827_191257;-0.366;4.925;8.253;0.002;-0.016;0.020;
20200827_191257;-0.306;4.927;8.246;0.003;-0.007;0.036;
20200827_191258;-0.251;4.939;8.260;0.003;-0.004;0.032;
20200827_191258;-0.235;4.937;8.246;0.000;0.001;0.031;
20200827_191258;-0.283;4.920;8.253;0.002;0.005;0.017;
20200827_191258;-0.268;4.925;8.238;0.000;0.006;0.020;
20200827_191258;-0.299;4.944;8.246;0.002;0.000;0.008;
20200827_191258;-0.259;4.925;8.243;0.000;0.000;0.005;
20200827_191258;-0.242;4.939;8.253;0.001;0.000;-0.001;
20200827_191258;-0.283;4.932;8.250;0.001;-0.001;-0.010;
20200827_191258;-0.220;4.939;8.260;-0.001;0.005;0.003;
20200827_191259;-0.242;4.932;8.246;-0.001;0.007;-0.003;
20200827_191259;-0.256;4.937;8.231;0.000;0.009;-0.013;
20200827_191259;-0.192;4.968;8.255;0.000;0.013;-0.010;
20200827_191259;-0.376;4.901;8.274;-0.001;0.021;-0.013;
20200827_191259;-0.333;4.831;8.176;0.000;0.027;0.008;
20200827_191259;-0.369;4.937;8.265;-0.002;0.023;0.006;
20200827_191259;-0.455;4.903;8.248;0.000;0.025;0.008;
20200827_191259;-0.445;4.958;8.246;-0.001;0.026;0.009;
20200827_191259;-0.448;4.930;8.277;-0.001;0.018;-0.004;
20200827_191259;-0.393;4.949;8.215;0.000;0.016;-0.011;
20200827_191300;-0.575;4.922;8.231;0.000;0.010;-0.005;
20200827_191300;-0.565;4.887;8.253;0.000;0.005;-0.011;
20200827_191300;-0.577;4.896;8.265;0.001;-0.002;0.014;
20200827_191300;-0.503;4.934;8.250;0.003;-0.018;-0.005;
20200827_191300;-0.388;4.942;8.219;0.002;-0.022;-0.029;
20200827_191300;-0.433;4.922;8.229;0.001;-0.011;-0.022;
20200827_191300;-0.517;4.887;8.250;0.001;-0.010;-0.014;
20200827_191300;-0.491;4.913;8.234;0.002;-0.019;-0.014;
20200827_191300;-0.488;4.872;8.425;0.008;-0.029;-0.062;
20200827_191301;-0.271;4.843;8.203;0.001;-0.002;0.041;
20200827_191301;-0.249;4.915;8.267;0.002;-0.008;0.005;
20200827_191301;-0.393;4.899;8.265;0.001;0.000;0.012;
20200827_191301;-0.292;4.927;8.255;0.001;0.009;0.041;
20200827_191301;-0.371;4.927;8.267;0.001;0.004;0.024;
20200827_191301;-0.419;4.942;8.226;0.000;-0.017;-0.037;
20200827_191301;-0.417;4.956;8.217;0.000;-0.009;0.022;
20200827_191301;0.089;5.004;8.260;0.001;0.000;0.092;
20200827_191301;-0.007;4.908;8.248;0.001;0.004;0.078;
20200827_191302;0.170;4.879;8.274;0.000;-0.008;-0.014;
20200827_191302;-0.268;4.980;8.212;0.000;-0.022;-0.095;
20200827_191302;-0.548;5.095;8.159;0.000;-0.016;-0.046;
20200827_191302;-0.421;5.018;8.298;0.004;-0.004;0.045;
20200827_191302;-0.259;4.705;8.296;0.003;0.008;0.085;
20200827_191302;-0.069;4.815;8.260;0.001;0.005;0.054;
20200827_191302;-0.010;4.994;8.183;-0.002;-0.026;-0.144;
20200827_191302;-0.357;5.092;8.138;0.001;0.045;0.054;
20200827_191302;-0.077;5.061;8.090;0.000;0.017;-0.011;
20200827_191302;-0.587;4.994;8.176;-0.003;0.014;-0.044;
20200827_191303;-0.318;4.946;8.253;0.003;0.058;0.142;
20200827_191303;0.038;4.820;8.358;0.002;0.042;0.100;
20200827_191303;-0.160;4.815;8.329;-0.001;0.025;0.025;
20200827_191303;0.017;4.932;8.224;-0.002;0.033;0.025;
20200827_191303;-0.752;5.033;8.215;-0.001;0.032;0.015;
20200827_191303;-0.634;5.200;8.121;0.001;-0.054;-0.067;
20200827_191303;-0.220;4.990;8.236;0.003;-0.022;0.128;
20200827_191303;-0.053;4.839;8.246;0.003;-0.048;0.076;
20200827_191303;0.215;4.927;8.262;0.002;-0.071;-0.006;
20200827_191304;0.192;4.820;8.277;-0.001;-0.050;0.008;
20200827_191304;0.259;4.855;8.313;0.001;-0.013;0.065;
20200827_191304;-0.086;4.824;8.303;0.001;0.022;0.098;
20200827_191304;-1.092;4.673;8.308;0.011;0.123;0.458;
20200827_191304;1.109;4.901;8.250;0.012;0.265;0.980;
20200827_191304;0.165;4.700;8.444;0.017;0.251;0.943;
20200827_191304;2.286;5.018;8.145;0.004;0.184;1.000;
20200827_191304;3.883;5.160;8.217;-0.007;-0.045;-0.101;
20200827_191304;1.228;5.959;7.805;-0.002;-0.121;-0.544;
20200827_191304;0.048;5.550;8.260;0.006;-0.077;-0.305;
20200827_191305;0.697;5.006;7.992;-0.003;0.114;0.465;
20200827_191305;1.401;5.581;8.650;0.020;0.193;0.814;
20200827_191305;1.235;4.348;6.900;-0.014;0.107;0.449;
20200827_191305;1.080;5.397;7.930;0.008;0.007;-0.003;
20200827_191305;1.616;5.119;8.641;-0.040;-0.140;-0.265;
20200827_191305;2.404;4.518;6.953;-0.003;-0.084;0.046;
20200827_191305;2.121;2.828;10.551;0.014;-0.066;0.173;
20200827_191305;1.494;5.332;8.198;0.064;-0.073;0.101;
20200827_191305;0.917;5.203;8.174;-0.049;0.002;0.413;
20200827_191306;2.188;4.424;6.412;0.043;0.112;0.647;
20200827_191306;3.464;2.957;9.498;0.027;0.141;0.733;
20200827_191306;3.479;3.644;7.731;0.012;0.032;0.074;
20200827_191306;2.660;4.381;8.660;0.067;-0.057;-0.376;
20200827_191306;1.860;4.949;7.786;-0.003;-0.126;-0.517;
20200827_191306;2.782;4.269;8.064;0.067;-0.122;-0.256;
20200827_191306;1.860;4.705;8.047;0.021;-0.069;-0.167;
20200827_191306;2.727;4.908;7.379;0.046;0.096;0.746;
20200827_191306;0.946;6.503;6.879;-0.029;-0.071;-0.071;
20200827_191307;2.595;4.202;7.530;-0.008;-0.009;0.225;
20200827_191307;2.832;5.478;7.149;0.052;0.107;0.493;
20200827_191307;3.802;3.725;7.623;0.114;0.080;0.352;
20200827_191307;3.419;2.550;5.090;0.116;0.057;-0.318;
20200827_191307;2.354;1.946;4.156;0.135;-0.085;-0.761;
20200827_191307;1.451;6.505;8.703;0.001;-0.094;-0.435;
20200827_191307;1.781;2.397;0.467;0.042;0.010;-0.033;
20200827_191307;1.820;7.848;14.332;0.060;0.036;0.125;
20200827_191307;1.623;2.935;-0.101;-0.021;0.023;0.002;
20200827_191307;3.079;8.100;-0.745;0.306;0.069;0.228;
20200827_191308;0.503;11.202;10.575;0.132;0.203;0.123;
20200827_191308;0.445;15.373;29.928;0.152;0.142;-0.130;
20200827_191308;5.780;8.224;0.711;-0.037;-0.082;-0.326;
20200827_191308;-0.239;10.017;2.820;0.330;0.156;-0.267;
20200827_191308;0.778;18.730;27.414;-0.024;-0.113;-0.441;
20200827_191308;0.397;-0.771;3.457;0.222;-0.040;-0.388;
20200827_191308;-1.135;9.448;16.350;0.238;0.110;-0.288;
20200827_191308;1.243;0.472;0.625;-0.278;-0.205;-0.210;
20200827_191308;0.800;10.496;-1.001;0.114;-0.111;-0.133;
20200827_191309;0.745;-0.024;9.251;-0.692;-0.162;-0.020;
20200827_191309;0.055;0.977;-10.755;-0.178;-0.100;0.234;
20200827_191309;-1.358;1.781;16.089;0.022;0.139;0.816;
20200827_191309;3.242;-0.668;-0.951;-0.265;0.110;0.656;
20200827_191309;2.241;9.263;10.264;0.222;0.134;0.013;
20200827_191309;0.917;8.088;23.042;0.135;0.048;-0.138;
20200827_191309;1.525;2.950;7.204;-0.043;-0.196;-0.521;
20200827_191309;2.988;-1.355;13.156;0.033;-0.228;-0.998;
20200827_191309;-3.127;17.751;-0.180;0.187;-0.180;-0.714;
20200827_191309;-1.602;10.046;5.715;-0.072;-0.379;-0.268;
20200827_191310;1.013;-2.983;3.417;-0.081;-0.378;0.423;
20200827_191310;-0.682;5.667;4.063;-0.069;-0.093;0.353;
20200827_191310;-1.456;7.987;5.401;0.114;0.196;1.266;
20200827_191310;0.242;3.254;-4.226;0.051;0.191;1.018;
20200827_191310;3.057;7.891;5.394;0.145;0.163;0.985;
20200827_191310;1.690;8.823;15.512;-0.186;0.335;0.815;
20200827_191310;3.108;4.077;-1.355;0.463;0.279;0.406;
20200827_191310;3.010;4.791;6.385;0.086;0.174;-0.265;
20200827_191310;1.331;10.252;2.040;0.181;0.031;-0.410;
20200827_191311;3.670;1.527;1.396;0.259;0.126;0.036;
20200827_191311;-0.029;3.723;13.094;0.041;0.167;0.128;
20200827_191311;-1.092;4.061;21.948;0.227;0.221;0.555;
20200827_191311;2.411;7.496;-2.143;0.140;0.092;0.197;
20200827_191311;2.116;11.835;16.305;0.246;0.020;-0.200;
20200827_191311;0.599;14.600;5.772;0.171;0.030;0.114;
20200827_191311;2.018;-3.280;1.120;0.077;0.179;0.533;
20200827_191311;1.456;2.492;11.305;0.152;0.158;0.734;
20200827_191311;3.888;12.153;2.021;0.427;0.128;0.241;
20200827_191311;0.608;4.681;8.037;-0.220;0.140;-0.054;
20200827_191312;2.401;7.865;6.273;0.228;0.123;-0.432;
20200827_191312;1.405;11.214;1.480;0.482;0.160;-0.913;
20200827_191312;2.368;-5.193;3.694;-0.251;-0.195;-1.526;
20200827_191312;-0.148;11.983;9.663;0.136;-0.335;-1.582;
20200827_191312;0.196;6.472;6.474;-0.059;-0.489;-0.944;
20200827_191312;0.634;4.757;9.268;-0.001;-0.245;0.125;
20200827_191312;-0.634;4.310;5.909;0.027;0.216;1.266;
20200827_191312;2.215;4.714;8.598;-0.047;0.136;0.984;
20200827_191312;1.384;4.815;7.977;-0.001;0.017;0.110;
20200827_191313;3.117;4.997;9.486;0.020;-0.065;-0.239;
20200827_191313;2.909;3.620;8.938;-0.027;-0.020;-0.312;
20200827_191313;2.526;5.066;8.873;-0.051;0.100;-0.349;
20200827_191313;1.662;3.785;7.796;-0.193;0.065;-0.496;
20200827_191313;0.378;4.427;6.756;-0.145;0.096;-0.250;
20200827_191313;0.565;6.273;7.360;-0.083;0.122;-0.048;
20200827_191313;0.905;6.749;6.723;-0.053;0.193;0.068;
20200827_191313;1.106;7.405;7.666;-0.037;0.282;0.054;
20200827_191313;0.819;6.201;7.151;-0.040;0.230;-0.216;
20200827_191314;-0.479;4.824;7.104;-0.013;0.294;-0.365;
20200827_191314;-1.765;4.025;8.171;-0.032;0.174;-0.670;
20200827_191314;-2.023;4.738;8.308;0.008;-0.341;-1.592;
20200827_191314;-1.255;5.236;8.459;0.118;-0.584;-1.774;
20200827_191314;-1.185;5.863;8.303;0.161;-0.431;-0.881;
20200827_191314;-1.307;4.202;8.499;0.100;-0.022;0.299;
20200827_191314;-1.990;3.402;9.187;-0.006;0.269;0.592;
20200827_191314;-0.644;4.657;7.858;0.021;0.121;-0.145;
20200827_191314;0.953;6.311;8.492;0.000;0.230;-0.168;
20200827_191314;-1.465;3.898;8.305;0.098;-0.292;-1.978;
20200827_191315;-1.235;2.476;9.038;0.279;-0.714;-2.330;
20200827_191315;-0.395;2.777;8.957;0.271;-0.407;-1.770;
20200827_191315;-5.626;1.130;9.792;0.749;-0.856;-1.848;
20200827_191315;-4.597;3.199;7.408;0.730;-0.474;0.733;
20200827_191315;-2.461;3.510;7.908;0.400;-0.277;1.474;
20200827_191315;-0.120;3.824;7.848;0.158;-0.185;1.201;
20200827_191315;-0.587;4.410;8.169;0.031;0.036;1.268;
20200827_191315;0.828;4.539;8.820;0.000;0.269;1.244;
20200827_191315;0.426;5.162;8.368;-0.012;0.131;0.470;
20200827_191316;1.994;5.104;8.222;-0.012;0.089;-0.119;
20200827_191316;1.178;3.572;8.619;0.029;0.123;-0.608;
20200827_191316;1.341;3.457;8.662;-0.045;-0.154;-1.169;
20200827_191316;-2.665;4.657;7.812;0.008;-0.173;-0.943;
20200827_191316;-3.136;4.058;8.734;0.090;-0.321;-0.465;
20200827_191316;-1.743;4.805;8.497;0.108;-0.442;-0.296;
20200827_191316;2.399;3.567;9.122;0.062;-0.167;0.017;
20200827_191316;-3.924;3.565;9.486;0.064;-0.318;-0.312;
20200827_191316;1.681;3.898;8.885;0.074;-0.392;0.120;
20200827_191316;1.020;7.604;6.716;0.034;-0.148;0.228;
20200827_191317;-0.670;4.628;8.672;0.010;-0.153;0.267;
20200827_191317;-0.484;4.786;8.179;-0.001;0.086;0.992;
20200827_191317;0.697;2.543;10.338;-0.030;0.325;1.385;
20200827_191317;4.276;3.191;8.849;0.116;0.187;0.574;
20200827_191317;0.807;5.267;8.705;0.078;0.111;-0.128;
20200827_191317;0.481;4.310;8.164;0.034;0.085;-0.005;
20200827_191317;0.409;5.001;7.724;0.063;0.178;0.581;
20200827_191317;0.093;5.777;8.207;0.110;0.488;0.817;
20200827_191317;1.381;5.820;7.276;0.077;0.311;0.017;
20200827_191318;-0.156;5.454;7.436;0.085;0.251;-0.297;
20200827_191318;-1.168;4.374;8.363;0.006;-0.091;-0.511;
20200827_191318;-0.826;4.214;9.045;-0.027;-0.068;0.004;
20200827_191318;-0.366;5.341;7.645;0.033;0.054;0.452;
20200827_191318;1.863;5.294;8.107;0.020;0.105;0.353;
20200827_191318;4.154;5.183;8.188;0.041;0.098;-0.251;
20200827_191318;1.894;4.927;6.821;-0.019;-0.072;-0.840;
20200827_191318;1.563;4.329;6.924;-0.008;-0.184;-1.052;
20200827_191318;-0.611;4.451;8.361;-0.016;-0.082;-0.576;
20200827_191319;-2.023;3.555;8.801;-0.004;-0.016;-0.255;
20200827_191319;-0.239;4.939;8.842;0.020;-0.040;-0.052;
20200827_191319;-0.062;5.873;7.094;0.032;-0.047;-0.128;
20200827_191319;-1.554;4.587;9.139;0.016;-0.094;-0.215;
20200827_191319;0.472;5.629;7.262;-0.002;-0.069;-0.197;
20200827_191319;0.467;4.300;7.882;-0.013;-0.069;-0.228;
20200827_191319;0.895;4.104;8.854;0.002;-0.215;-0.572;
20200827_191319;-0.002;5.334;9.380;0.036;-0.309;-0.847;
20200827_191319;-2.576;4.338;7.360;0.095;-0.392;-0.452;
20200827_191319;-0.601;5.102;7.738;0.081;-0.320;0.166;
20200827_191320;-0.591;5.720;7.171;0.016;-0.244;0.407;
20200827_191320;0.218;4.398;9.476;-0.031;-0.194;0.495;
20200827_191320;-1.714;3.038;8.574;0.004;0.097;0.924;
20200827_191320;1.109;5.942;9.845;0.008;0.058;0.821;
20200827_191320;-0.354;4.384;8.037;0.033;0.105;0.392;
20200827_191320;1.132;4.896;8.413;0.047;0.153;0.401;
20200827_191320;0.855;4.908;8.507;0.038;0.129;0.097;
20200827_191320;-0.244;4.166;8.356;0.043;0.081;0.198;
20200827_191320;0.555;4.786;9.342;0.031;0.175;0.387;
20200827_191320;0.994;4.918;8.729;0.038;0.086;-0.061;
20200827_191321;0.560;4.901;8.997;0.013;0.075;0.086;
20200827_191321;1.516;4.743;7.422;0.009;0.001;-0.012;
20200827_191321;0.081;4.597;8.238;0.016;0.051;-0.038;
20200827_191321;-0.256;3.891;7.405;0.034;0.082;0.394;
20200827_191321;0.939;5.641;6.045;0.069;0.230;0.710;
20200827_191321;1.355;5.404;6.086;0.099;0.325;0.449;
20200827_191321;-0.498;5.729;8.882;0.106;0.372;0.124;
20200827_191321;0.670;3.974;9.323;0.015;0.191;-0.260;
20200827_191321;2.586;5.270;8.760;-0.005;0.073;-0.558;
20200827_191321;-0.271;5.001;8.598;-0.054;-0.058;-0.822;
20200827_191322;1.104;4.590;8.025;-0.043;-0.074;-0.397;
20200827_191322;0.414;4.259;9.711;-0.029;-0.050;-0.245;
20200827_191322;0.582;4.456;9.153;-0.032;-0.093;-0.370;
20200827_191322;-0.266;4.776;9.261;-0.001;-0.192;-0.181;
20200827_191322;0.247;4.403;7.970;0.040;-0.140;0.065;
20200827_191322;-0.898;4.982;8.363;-0.002;-0.155;0.115;
20200827_191322;-1.178;3.132;8.370;-0.022;-0.034;0.466;
20200827_191322;-0.060;4.870;9.886;-0.016;0.110;0.619;
20200827_191322;0.232;4.743;8.930;0.026;0.238;0.436;
20200827_191323;3.247;4.477;7.985;0.033;0.135;-0.279;
20200827_191323;1.195;3.785;8.708;0.004;0.056;-0.665;
20200827_191323;1.053;3.962;9.697;-0.014;-0.037;-0.687;
20200827_191323;-0.843;4.252;9.388;-0.003;-0.076;-0.348;
20200827_191323;-0.204;4.606;9.349;0.016;-0.140;-0.519;
20200827_191323;-1.803;5.772;9.452;0.050;-0.117;0.042;
20200827_191323;-0.144;5.535;8.392;0.009;-0.109;0.331;
20200827_191323;-0.122;3.632;8.334;-0.040;-0.020;0.248;
20200827_191323;1.063;5.234;8.341;0.012;-0.051;0.020;
20200827_191323;-0.034;4.681;6.974;0.029;-0.103;-0.008;
20200827_191324;1.413;3.812;5.219;0.036;-0.179;-0.210;
20200827_191324;0.275;6.299;8.899;-0.019;-0.188;-0.244;
20200827_191324;-1.386;4.719;9.694;0.000;-0.068;0.430;
20200827_191324;1.137;4.992;8.437;0.029;0.045;0.467;
20200827_191324;0.551;4.319;5.705;0.070;0.189;0.383;
20200827_191324;2.193;4.374;10.843;0.057;0.163;0.077;
20200827_191324;1.829;4.259;7.616;-0.020;0.188;-0.100;
20200827_191324;0.503;6.838;7.458;-0.019;0.142;-0.098;
20200827_191324;2.385;4.365;8.387;-0.013;0.069;-0.482;
20200827_191325;-0.654;3.891;7.319;-0.046;-0.090;-0.714;
20200827_191325;0.948;4.171;9.615;-0.046;-0.290;-0.476;
20200827_191325;0.594;4.274;10.039;0.015;-0.269;-0.043;
20200827_191325;0.529;4.798;8.305;-0.066;-0.139;0.264;
20200827_191325;-1.863;4.250;8.827;0.006;0.120;0.527;
20200827_191325;1.709;5.193;9.407;-0.018;-0.006;0.107;
20200827_191325;2.093;4.609;8.681;0.002;0.030;-0.002;
20200827_191325;0.345;5.260;6.802;-0.011;0.051;-0.146;
20200827_191325;-0.378;6.038;6.256;-0.010;-0.062;-0.269;
20200827_191325;-1.650;2.835;11.629;0.024;0.004;0.214;
20200827_191326;0.366;4.041;5.416;0.046;0.146;0.353;
20200827_191326;1.980;3.220;8.784;0.010;0.049;-0.241;
20200827_191326;1.705;4.903;8.392;-0.010;-0.170;-0.546;
20200827_191326;1.247;5.646;6.754;0.055;-0.305;-0.519;
20200827_191326;-1.872;2.682;9.582;-0.052;-0.196;0.137;
20200827_191326;0.055;6.361;10.080;-0.018;-0.089;0.593;
20200827_191326;0.127;4.499;6.826;0.047;0.054;0.651;
20200827_191326;0.304;5.459;9.210;0.002;0.058;0.260;
20200827_191326;-0.007;4.286;6.294;0.046;0.053;0.168;
20200827_191327;-0.424;3.369;10.563;0.089;0.178;0.601;
20200827_191327;1.128;7.223;10.513;-0.005;0.179;0.084;
20200827_191327;1.992;5.229;11.021;-0.061;-0.018;-0.514;
20200827_191327;0.977;3.783;8.191;-0.028;0.050;-0.097;
20200827_191327;-1.183;3.534;12.273;0.020;0.209;0.351;
20200827_191327;0.091;3.565;6.017;0.079;0.470;0.714;
20200827_191327;2.942;4.970;7.293;0.074;0.390;-0.415;
20200827_191327;1.106;5.765;7.745;-0.028;0.047;-1.272;
20200827_191327;-0.579;3.589;7.362;-0.025;-0.198;-0.600;
20200827_191327;0.263;6.311;10.341;0.003;-0.401;-0.659;
20200827_191328;-2.105;4.575;4.918;0.085;-0.306;0.220;
20200827_191328;-1.022;5.023;10.293;0.020;-0.205;0.490;
20200827_191328;0.611;3.771;7.520;0.033;-0.028;0.459;
20200827_191328;0.546;4.906;11.234;-0.030;0.189;0.375;
20200827_191328;0.800;4.762;7.932;0.011;0.106;-0.076;
20200827_191328;0.943;3.558;6.709;0.038;0.142;-0.242;
20200827_191328;-1.109;5.705;9.321;-0.015;0.113;-0.206;
20200827_191328;0.455;2.215;6.057;-0.017;0.039;-0.101;
20200827_191328;-0.170;3.625;8.842;0.010;0.050;-0.099;
20200827_191329;-1.338;4.556;9.608;-0.005;-0.139;-0.129;
20200827_191329;0.393;5.612;7.678;-0.007;-0.083;0.037;
20200827_191329;0.139;5.588;10.700;-0.025;-0.094;-0.167;
20200827_191329;-1.350;1.360;6.867;-0.010;-0.033;-0.007;
20200827_191329;1.336;4.492;10.376;-0.030;-0.073;0.096;
20200827_191329;-0.278;4.812;8.667;0.010;0.158;0.404;
20200827_191329;-0.117;5.746;11.248;-0.051;-0.004;-0.293;
20200827_191329;-0.378;4.480;5.394;0.026;-0.019;-0.186;
20200827_191329;0.156;4.113;5.897;0.016;-0.115;-0.218;
20200827_191329;0.759;3.199;11.214;-0.015;-0.160;-0.330;
20200827_191330;0.666;4.453;11.037;-0.060;-0.230;-0.186;
20200827_191330;0.773;6.381;8.993;0.040;-0.167;0.318;
20200827_191330;-1.317;2.179;10.645;0.048;-0.097;0.603;
20200827_191330;1.302;5.804;7.815;-0.017;0.060;0.695;
20200827_191330;0.785;5.669;10.760;0.031;0.306;0.351;
20200827_191330;-0.570;3.163;5.033;0.017;0.214;-0.229;
20200827_191330;3.931;0.754;8.418;0.134;0.049;-0.262;
20200827_191330;-0.249;7.599;7.989;0.064;-0.003;-0.164;
20200827_191330;-0.723;5.296;4.092;-0.127;0.004;0.026;
20200827_191331;1.041;3.474;7.791;-0.029;-0.087;-0.073;
20200827_191331;-1.980;4.628;9.110;-0.011;0.078;0.262;
20200827_191331;1.183;6.029;8.231;0.027;0.094;0.195;
20200827_191331;0.948;4.424;8.854;0.001;0.120;-0.062;
20200827_191331;0.357;5.131;10.839;-0.047;0.094;-0.084;
20200827_191331;0.340;4.053;10.748;-0.011;0.069;-0.198;
20200827_191331;1.250;4.901;9.031;0.045;-0.065;-0.333;
20200827_191331;0.251;4.954;9.333;-0.003;-0.187;-0.181;
20200827_191331;-0.254;4.908;10.001;0.005;-0.123;0.091;
20200827_191331;1.003;3.735;8.882;-0.007;-0.092;0.091;
20200827_191332;-0.036;4.403;7.444;-0.031;-0.077;0.125;
20200827_191332;1.063;4.944;7.290;0.036;-0.039;0.309;
20200827_191332;-1.525;4.803;7.250;-0.003;0.152;0.390;
20200827_191332;0.723;5.167;7.925;0.040;0.206;-0.015;
20200827_191332;1.525;3.560;10.245;0.002;0.054;-0.518;
20200827_191332;0.237;4.487;6.479;-0.006;-0.051;-0.309;
20200827_191332;-0.409;3.575;9.546;-0.022;-0.065;0.054;
20200827_191332;-0.247;4.736;9.905;0.004;-0.069;-0.020;
20200827_191332;1.259;3.496;5.516;0.029;-0.082;0.047;
20200827_191333;-0.855;4.252;9.589;0.022;0.037;0.133;
20200827_191333;0.429;5.528;7.626;0.036;0.121;0.221;
20200827_191333;-0.213;3.445;6.665;0.038;0.111;-0.038;
20200827_191333;0.433;5.277;11.032;-0.030;0.127;-0.069;
20200827_191333;1.061;4.125;6.881;0.008;-0.062;-0.403;
20200827_191333;0.081;5.162;7.788;0.037;-0.066;-0.298;
20200827_191333;-0.302;7.051;11.406;0.012;-0.073;-0.072;
20200827_191333;1.537;3.697;5.758;-0.003;-0.162;-0.115;
20200827_191333;0.692;5.435;8.753;0.013;-0.062;0.061;
20200827_191334;0.034;5.519;8.068;-0.012;-0.093;0.049;
20200827_191334;0.402;2.966;7.350;0.001;0.077;0.160;
20200827_191334;-0.163;5.732;8.435;-0.010;0.027;-0.031;
20200827_191334;-0.383;3.596;8.171;0.021;0.022;0.066;
20200827_191334;1.204;2.430;5.418;0.017;0.024;-0.005;
20200827_191334;1.073;3.733;8.246;0.000;-0.052;-0.328;
20200827_191334;-0.527;4.089;11.066;-0.034;-0.071;-0.144;
20200827_191334;0.484;4.841;10.882;-0.022;-0.181;-0.145;
20200827_191334;-0.204;2.330;5.507;0.033;-0.119;0.190;
20200827_191334;0.055;4.712;9.369;0.045;-0.076;0.201;
20200827_191335;-0.469;4.630;7.772;0.026;0.005;0.302;
20200827_191335;-0.548;5.698;6.740;-0.035;0.020;0.205;
20200827_191335;0.326;2.682;9.175;-0.007;0.102;0.257;
20200827_191335;0.778;4.925;8.660;-0.016;0.102;0.026;
20200827_191335;0.208;4.465;9.773;0.037;0.151;-0.099;
20200827_191335;1.132;3.290;6.850;0.009;0.013;-0.252;
20200827_191335;0.627;3.953;7.017;-0.004;-0.021;-0.190;
20200827_191335;0.158;3.620;9.989;0.001;-0.036;0.005;
20200827_191335;-0.235;4.017;7.003;0.028;0.018;0.069;
20200827_191335;0.455;6.467;10.010;-0.018;-0.022;-0.001;
20200827_191336;0.354;3.395;6.122;-0.017;0.008;0.083;
20200827_191336;0.417;5.801;8.540;0.002;0.026;-0.011;
20200827_191336;0.400;4.355;9.986;-0.004;0.032;0.013;
20200827_191336;0.438;3.462;9.606;0.008;0.056;-0.010;
20200827_191336;0.728;3.989;7.887;-0.032;0.017;-0.142;
20200827_191336;0.223;3.876;9.572;0.019;-0.020;-0.139;
20200827_191336;-0.405;3.747;5.768;0.013;-0.021;-0.011;
20200827_191336;-0.091;5.990;10.386;-0.014;-0.013;0.051;
20200827_191336;0.045;4.266;8.011;0.008;0.018;0.052;
20200827_191337;0.680;4.633;7.853;-0.017;0.018;-0.020;
20200827_191337;0.227;3.505;9.402;-0.037;0.023;-0.076;
20200827_191337;0.484;3.953;6.610;0.035;0.001;-0.122;
20200827_191337;-0.108;4.513;10.044;-0.016;-0.015;-0.116;
20200827_191337;0.383;4.836;7.092;-0.002;-0.051;-0.081;
20200827_191337;0.204;6.179;7.087;-0.020;-0.068;-0.044;
20200827_191337;0.017;3.809;6.800;0.032;-0.072;0.010;
20200827_191337;-0.208;4.446;8.957;-0.016;-0.044;0.060;
20200827_191337;0.278;4.326;9.562;0.038;-0.058;0.075;
20200827_191338;0.448;5.315;9.720;-0.049;-0.033;0.103;
20200827_191338;0.376;4.056;6.495;0.024;0.004;0.102;
20200827_191338;0.311;4.049;8.796;-0.019;0.029;0.046;
20200827_191338;0.704;4.640;7.175;0.015;0.050;0.037;
20200827_191338;1.092;5.887;8.059;0.073;0.070;-0.073;
20200827_191338;-0.081;4.209;9.440;0.015;-0.005;-0.100;
20200827_191338;0.072;4.001;7.168;-0.025;-0.034;-0.160;
20200827_191338;0.464;4.221;10.518;0.036;-0.062;0.019;
20200827_191338;0.441;5.981;6.766;-0.002;-0.071;0.109;
20200827_191338;0.960;4.029;6.148;0.016;-0.001;0.120;
20200827_191339;-0.223;4.082;10.247;-0.032;0.005;-0.028;
20200827_191339;0.843;4.317;10.697;0.018;0.032;0.055;
20200827_191339;0.215;5.926;7.453;-0.005;-0.005;-0.016;
20200827_191339;-1.020;4.767;6.500;0.028;0.016;0.086;
20200827_191339;0.469;4.463;10.123;0.008;0.073;0.371;
20200827_191339;1.058;3.745;7.743;0.032;0.111;-0.041;
20200827_191339;1.171;6.517;5.954;-0.041;-0.023;-0.295;
20200827_191339;0.196;4.209;6.266;0.009;-0.141;-0.248;
20200827_191339;0.160;4.827;9.519;-0.029;-0.118;0.043;
20200827_191340;-0.048;4.025;11.250;0.008;-0.080;0.197;
20200827_191340;0.536;5.157;8.207;-0.052;0.038;0.285;
20200827_191340;0.575;4.480;6.261;0.055;0.000;0.132;
20200827_191340;0.369;4.645;9.596;0.016;0.153;0.200;
20200827_191340;0.512;5.107;6.369;0.035;0.080;-0.051;
20200827_191340;0.196;4.721;8.775;0.049;0.037;0.020;
20200827_191340;-0.309;2.959;6.795;0.020;0.138;0.139;
20200827_191340;1.276;5.928;5.926;0.009;-0.084;-0.267;
20200827_191340;0.122;4.374;11.954;0.010;0.006;-0.023;
20200827_191340;3.840;5.744;7.434;-0.025;-0.089;-0.119;
20200827_191341;1.113;3.503;8.511;0.029;-0.106;-0.206;
20200827_191341;-0.781;3.953;9.438;-0.010;-0.111;0.032;
20200827_191341;-0.038;5.993;7.594;-0.029;-0.022;0.340;
20200827_191341;-0.838;4.166;7.755;0.078;0.031;0.292;
20200827_191341;-0.570;3.512;9.112;-0.010;0.130;0.353;
20200827_191341;1.580;5.375;8.363;0.029;0.142;0.109;
20200827_191341;0.678;4.676;6.498;0.006;0.255;-0.023;
20200827_191341;1.504;4.238;6.809;0.098;0.135;-0.404;
20200827_191341;1.135;3.754;9.491;-0.051;0.049;-0.531;
20200827_191342;0.122;4.877;7.561;-0.008;-0.037;-0.343;
20200827_191342;-0.785;4.757;8.768;-0.022;-0.055;-0.093;
20200827_191342;-0.249;5.545;5.689;0.051;-0.068;0.026;
20200827_191342;0.962;3.859;9.112;0.036;-0.070;-0.072;
20200827_191342;-0.060;4.779;8.308;-0.016;-0.035;-0.109;
20200827_191342;0.606;4.441;10.202;0.013;-0.077;-0.137;
20200827_191342;0.725;4.037;10.412;0.004;-0.090;-0.127;
20200827_191342;0.144;4.173;7.999;0.055;-0.069;-0.072;
20200827_191342;0.098;4.515;9.239;-0.013;-0.093;-0.155;
20200827_191343;0.512;3.955;7.642;0.012;-0.123;-0.090;
20200827_191343;0.371;4.137;9.914;-0.044;-0.123;-0.013;
20200827_191343;-0.065;4.808;6.766;0.060;-0.084;0.141;
20200827_191343;0.010;4.992;8.990;-0.006;-0.036;0.093;
20200827_191343;0.225;4.137;8.009;0.017;-0.010;0.064;
20200827_191343;0.043;3.831;11.521;-0.047;0.014;0.019;
20200827_191343;0.414;5.339;7.429;0.018;0.013;-0.031;
20200827_191343;0.575;4.678;9.199;-0.006;0.074;-0.062;
20200827_191343;0.302;4.319;8.748;0.030;0.043;-0.240;
20200827_191343;0.122;4.257;7.867;0.013;-0.031;-0.294;
20200827_191344;-0.539;3.440;10.556;-0.056;-0.064;-0.139;
20200827_191344;0.484;4.310;7.659;-0.013;-0.145;-0.115;
20200827_191344;0.596;4.597;7.884;0.000;-0.143;-0.135;
20200827_191344;-0.189;5.121;10.094;0.000;-0.158;0.037;
20200827_191344;-0.405;4.590;6.625;0.066;-0.138;0.161;
20200827_191344;-0.242;2.720;9.864;0.000;-0.068;0.355;
20200827_191344;0.175;3.649;8.942;-0.027;-0.028;0.218;
20200827_191344;0.283;2.636;10.865;-0.002;0.024;0.227;
20200827_191344;-0.141;3.697;11.372;-0.028;0.076;0.236;
20200827_191345;0.364;4.752;9.127;-0.016;0.089;0.190;
20200827_191345;0.742;4.468;8.545;-0.023;0.090;0.114;
20200827_191345;0.807;5.547;9.155;0.048;0.105;-0.027;
20200827_191345;0.285;4.879;8.717;-0.008;0.118;0.009;
20200827_191345;0.951;4.587;9.117;-0.028;0.044;-0.118;
20200827_191345;0.819;4.424;9.060;-0.055;0.039;-0.144;
20200827_191345;0.764;4.381;7.901;-0.031;-0.022;-0.220;
20200827_191345;0.065;3.852;8.868;0.003;-0.045;-0.082;
20200827_191345;-0.599;4.748;10.956;-0.013;-0.059;0.063;
20200827_191346;0.280;4.132;9.826;-0.031;-0.042;0.240;
20200827_191346;-0.927;3.503;10.568;-0.045;0.103;0.420;
20200827_191346;0.328;4.664;8.689;-0.005;0.122;0.302;
20200827_191346;1.551;4.010;8.657;0.018;0.184;-0.007;
20200827_191346;1.537;4.427;10.451;0.002;0.109;-0.432;
20200827_191346;0.656;4.551;9.962;-0.040;0.034;-0.498;
20200827_191346;-0.026;3.900;10.451;-0.005;-0.036;-0.421;
20200827_191346;-0.347;4.343;9.232;-0.028;-0.123;-0.187;
20200827_191346;-1.056;4.762;8.928;0.009;-0.118;0.032;
20200827_191346;-0.206;4.144;7.669;0.028;-0.116;0.101;
20200827_191347;0.213;3.938;8.636;0.034;-0.067;0.146;
20200827_191347;-0.045;4.171;7.298;0.026;0.023;0.169;
20200827_191347;-0.335;4.719;7.307;0.045;0.015;0.201;
20200827_191347;1.729;4.513;8.011;-0.018;-0.007;-0.088;
20200827_191347;-0.316;4.858;8.384;0.006;-0.002;-0.132;
20200827_191347;0.299;4.925;7.848;-0.013;-0.086;-0.062;
20200827_191347;0.460;4.690;8.830;0.010;-0.057;0.172;
20200827_191347;-0.895;3.541;9.246;-0.005;0.016;0.339;
20200827_191347;0.924;4.812;7.728;-0.006;0.071;0.358;
20200827_191348;0.393;5.464;8.217;0.040;0.130;0.174;
20200827_191348;2.693;5.104;10.111;0.026;0.091;-0.136;
20200827_191348;0.464;4.743;10.171;0.004;0.076;-0.271;
20200827_191348;-0.776;4.707;9.096;-0.060;-0.022;-0.337;
20200827_191348;1.056;3.891;7.415;-0.023;-0.024;-0.008;
20200827_191348;-0.005;3.646;9.120;-0.019;0.014;-0.093;
20200827_191348;0.536;4.367;11.502;-0.013;-0.055;-0.103;
20200827_191348;-1.425;5.162;9.433;-0.025;-0.048;0.043;
20200827_191348;0.005;4.087;10.307;-0.040;-0.028;0.147;
20200827_191349;1.180;4.853;7.614;0.001;-0.011;0.184;
20200827_191349;-0.438;4.884;7.657;0.014;0.100;0.253;
20200827_191349;0.548;3.797;6.981;0.018;0.045;-0.102;
20200827_191349;-1.063;4.017;8.708;0.042;0.036;-0.115;
20200827_191349;-0.124;5.234;7.865;0.026;0.104;0.200;
20200827_191349;0.292;4.726;9.210;0.026;0.088;0.038;
20200827_191349;1.441;4.662;8.602;0.000;0.048;-0.364;
20200827_191349;1.195;5.030;7.817;0.006;-0.033;-0.563;
20200827_191349;0.452;4.271;6.560;0.026;-0.098;-0.410;
20200827_191349;-0.081;4.252;8.684;0.053;-0.114;-0.143;
20200827_191350;0.441;4.752;7.973;0.073;-0.190;-0.184;
20200827_191350;0.390;4.839;9.007;0.004;-0.231;-0.207;
20200827_191350;-1.693;4.992;8.748;0.028;-0.270;0.130;
20200827_191350;-1.391;4.348;6.843;0.035;-0.072;0.890;
20200827_191350;-0.515;4.875;7.144;0.054;0.111;0.949;
20200827_191350;0.898;4.424;7.183;0.063;0.164;0.478;
20200827_191350;1.185;4.154;8.588;0.067;0.159;-0.047;
20200827_191350;0.845;4.609;7.740;0.033;0.093;-0.216;
20200827_191350;0.613;4.700;9.821;-0.005;0.089;-0.093;
20200827_191351;0.139;5.191;10.822;-0.025;0.007;-0.068;
20200827_191351;1.305;4.202;7.733;-0.050;-0.016;-0.142;
20200827_191351;0.630;3.658;6.000;0.030;0.062;0.060;
20200827_191351;-0.132;4.226;8.885;-0.008;0.067;0.225;
20200827_191351;0.393;6.436;10.166;0.076;0.118;0.289;
20200827_191351;1.135;4.135;6.167;0.026;0.167;0.217;
20200827_191351;2.298;4.999;7.740;0.005;0.157;-0.164;
20200827_191351;0.172;4.930;7.678;0.015;0.092;-0.410;
20200827_191351;0.098;3.967;9.306;0.001;0.056;-0.227;
20200827_191352;0.244;4.384;7.523;0.060;-0.020;-0.211;
20200827_191352;0.424;4.427;6.565;0.051;-0.021;-0.245;
20200827_191352;0.675;4.633;6.981;0.043;-0.121;-0.330;
20200827_191352;-1.094;4.650;8.734;0.018;-0.018;-0.022;
20200827_191352;0.220;5.167;9.199;0.015;-0.081;-0.032;
20200827_191352;1.358;3.587;6.673;0.043;-0.044;-0.068;
20200827_191352;0.072;4.058;6.958;0.050;-0.061;-0.311;
20200827_191352;-0.967;4.870;7.810;0.043;-0.098;-0.167;
20200827_191352;-0.754;4.585;8.899;-0.024;-0.141;-0.092;
20200827_191352;0.321;4.836;8.945;0.012;-0.198;-0.126;
20200827_191353;-1.314;4.640;6.000;0.053;-0.155;0.134;
20200827_191353;-1.365;2.686;6.725;0.019;-0.050;0.612;
20200827_191353;0.479;4.942;8.547;0.013;-0.027;0.452;
20200827_191353;0.436;4.776;9.208;0.019;0.066;0.323;
20200827_191353;1.228;5.334;6.991;0.035;0.073;0.111;
20200827_191353;1.355;4.863;6.503;0.036;0.098;-0.020;
20200827_191353;1.494;6.012;9.172;0.019;0.050;-0.271;
20200827_191353;1.006;3.697;9.503;-0.038;-0.008;-0.230;
20200827_191353;-0.608;4.465;8.313;0.001;0.000;-0.073;
20200827_191354;-1.551;3.852;8.832;0.012;0.037;0.165;
20200827_191354;-0.673;4.882;10.010;-0.023;0.049;0.329;
20200827_191354;-0.261;3.728;7.793;-0.004;0.100;0.264;
20200827_191354;0.156;4.420;8.557;0.005;0.142;0.134;
20200827_191354;0.594;4.408;10.460;-0.008;0.161;-0.055;
20200827_191354;0.991;5.047;8.203;0.053;0.103;-0.229;
20200827_191354;2.564;3.675;4.037;0.040;0.085;-0.371;
20200827_191354;0.503;4.456;7.293;0.011;-0.020;-0.364;
20200827_191354;0.692;4.911;9.110;0.001;-0.082;-0.342;
20200827_191355;0.388;4.836;9.086;0.013;-0.138;-0.260;
20200827_191355;0.373;4.027;6.874;0.018;-0.141;-0.065;
20200827_191355;-1.183;4.231;6.151;0.037;-0.082;0.030;
20200827_191355;-0.204;4.863;7.288;0.048;-0.083;0.205;
20200827_191355;0.062;4.314;10.187;-0.027;-0.013;0.257;
20200827_191355;1.221;5.160;8.461;0.015;0.000;0.120;
20200827_191355;-0.481;3.850;6.182;0.006;-0.002;0.015;
20200827_191355;-0.024;3.577;5.401;0.073;0.000;0.150;
20200827_191355;0.584;5.131;8.653;0.014;0.017;0.097;
20200827_191355;0.934;4.764;9.237;0.019;0.060;0.108;
20200827_191356;1.202;5.061;7.774;0.022;0.039;-0.089;
20200827_191356;-0.373;4.614;8.945;0.021;0.043;-0.166;
20200827_191356;1.468;6.428;10.075;-0.012;-0.021;-0.082;
20200827_191356;0.433;5.035;9.151;0.002;0.055;-0.081;
20200827_191356;-0.541;3.855;8.650;0.012;-0.035;-0.175;
20200827_191356;0.278;4.549;7.482;0.003;-0.038;-0.077;
20200827_191356;-0.941;4.920;9.409;-0.011;-0.050;0.135;
20200827_191356;0.448;4.767;10.245;-0.014;-0.106;0.149;
20200827_191356;0.371;4.633;8.200;-0.015;-0.002;0.278;
20200827_191357;-0.333;4.219;8.595;0.026;0.183;0.363;
20200827_191357;0.481;3.864;10.388;-0.025;0.159;0.084;
20200827_191357;1.396;4.820;9.969;-0.037;0.041;-0.246;
20200827_191357;1.243;3.905;8.957;-0.043;-0.037;-0.520;
20200827_191357;1.106;5.385;8.334;-0.006;-0.058;-0.308;
20200827_191357;0.857;5.186;7.695;0.015;-0.011;-0.275;
20200827_191357;0.385;4.274;10.855;-0.027;-0.103;-0.258;
20200827_191357;-0.345;4.305;4.836;0.069;-0.131;0.122;
20200827_191357;-0.302;4.480;6.721;0.066;0.043;0.386;
20200827_191357;0.505;4.810;9.124;-0.018;0.000;0.112;
20200827_191358;-0.235;4.911;9.835;-0.046;0.044;0.067;
20200827_191358;0.084;5.126;6.560;0.030;0.070;0.148;
20200827_191358;1.530;3.103;7.470;0.062;0.118;0.032;
20200827_191358;0.426;4.499;8.150;-0.002;0.034;-0.378;
20200827_191358;0.211;4.056;7.350;0.004;-0.055;-0.348;
20200827_191358;0.692;3.821;8.262;0.006;-0.108;-0.262;
20200827_191358;0.515;5.045;10.393;-0.017;-0.156;-0.283;
20200827_191358;-0.247;5.547;9.881;-0.006;-0.145;-0.078;
20200827_191358;0.115;3.907;8.906;-0.028;-0.149;0.096;
20200827_191358;-1.346;4.240;8.610;-0.013;-0.099;0.319;
20200827_191359;-0.034;4.774;8.313;0.000;0.021;0.515;
20200827_191359;1.027;5.339;4.827;0.024;0.016;0.222;
20200827_191359;0.670;5.243;7.166;0.035;0.118;0.347;
20200827_191359;0.766;5.399;9.543;0.004;0.107;0.238;
20200827_191359;1.197;3.330;9.883;0.022;0.180;-0.029;
20200827_191359;1.331;4.424;6.996;0.050;-0.004;-0.439;
20200827_191359;-0.163;5.389;9.974;-0.010;-0.057;-0.201;
20200827_191359;-0.376;4.899;7.762;-0.034;-0.113;0.084;
20200827_191359;-0.345;5.018;8.940;-0.001;0.002;0.266;
20200827_191400;0.354;5.320;9.673;0.043;0.004;0.134;
20200827_191400;0.117;4.207;7.187;0.117;0.077;0.270;
20200827_191400;0.385;4.930;9.457;0.017;0.184;0.204;
20200827_191400;0.426;5.219;7.728;0.010;0.180;-0.036;
20200827_191400;0.522;5.947;9.890;-0.043;0.087;-0.171;
20200827_191400;0.086;4.025;8.114;0.060;0.013;-0.105;
20200827_191400;-0.048;5.351;8.349;0.043;-0.007;-0.160;
20200827_191400;0.381;4.970;8.334;0.003;-0.133;-0.197;
20200827_191400;0.259;3.673;7.951;-0.025;-0.044;0.136;
20200827_191401;-0.072;6.280;8.837;-0.044;-0.068;0.015;
20200827_191401;-0.144;2.267;6.891;-0.036;0.040;0.191;
20200827_191401;0.239;4.518;9.021;0.020;0.081;0.103;
20200827_191401;1.456;5.425;5.885;0.038;0.188;0.120;
20200827_191401;1.221;4.096;7.211;-0.006;0.045;-0.428;
20200827_191401;-1.669;5.425;9.428;-0.030;-0.057;-0.214;
20200827_191401;-1.592;3.354;8.164;-0.029;-0.032;0.147;
20200827_191401;1.865;4.681;10.087;0.014;-0.087;-0.085;
20200827_191401;1.374;3.871;7.688;0.041;-0.204;-0.506;
20200827_191401;-0.443;3.749;8.315;0.041;-0.220;0.009;
20200827_191402;-0.666;5.605;8.001;-0.010;-0.202;0.274;
20200827_191402;0.895;3.302;7.896;-0.010;-0.089;0.369;
20200827_191402;-0.687;4.329;6.778;-0.027;0.017;0.409;
20200827_191402;1.563;3.962;6.644;0.042;0.112;0.271;
20200827_191402;-0.991;4.116;7.642;0.009;0.160;0.073;
20200827_191402;0.089;5.868;6.795;0.033;0.228;0.294;
20200827_191402;0.299;4.252;9.565;0.024;0.243;0.004;
20200827_191402;1.779;3.948;9.301;0.053;0.148;-0.229;
20200827_191402;0.977;4.846;8.238;0.029;0.072;-0.400;
20200827_191403;0.627;4.645;8.926;0.020;-0.039;-0.337;
20200827_191403;0.907;5.842;8.610;-0.060;-0.114;-0.204;
20200827_191403;0.476;4.051;4.899;0.024;-0.043;-0.132;
20200827_191403;-0.249;4.994;9.950;0.016;-0.052;0.029;
20200827_191403;-0.565;5.866;9.129;-0.014;-0.035;0.046;
20200827_191403;-0.163;4.717;10.700;-0.029;-0.013;0.159;
20200827_191403;-0.903;4.508;5.488;0.052;0.044;0.143;
20200827_191403;1.192;4.484;11.028;-0.055;-0.032;0.093;
20200827_191403;1.693;5.262;8.887;0.026;-0.028;-0.112;
20200827_191403;0.951;4.992;7.214;0.051;-0.069;-0.388;
20200827_191404;-1.106;3.903;5.260;0.033;-0.126;-0.037;
20200827_191404;-0.417;5.636;8.926;-0.036;-0.159;0.315;
20200827_191404;-0.091;4.061;9.093;-0.036;0.000;0.390;
20200827_191404;-0.845;5.222;6.414;0.066;0.098;0.224;
20200827_191404;2.270;3.682;10.496;0.080;0.100;0.079;
20200827_191404;-0.747;5.181;9.309;-0.027;0.159;0.087;
20200827_191404;1.487;5.243;9.251;0.037;0.127;0.016;
20200827_191404;-1.168;3.816;5.794;0.057;0.157;-0.157;
20200827_191404;1.405;5.990;11.255;0.006;0.033;-0.305;
20200827_191405;0.347;4.269;7.669;0.009;0.006;-0.246;
20200827_191405;0.057;5.119;7.506;0.015;-0.012;-0.133;
20200827_191405;0.086;3.828;7.781;0.040;-0.072;-0.187;
20200827_191405;0.105;6.103;10.661;-0.012;-0.089;0.055;
20200827_191405;0.002;4.149;9.972;-0.010;-0.088;0.213;
20200827_191405;1.164;5.030;6.871;-0.022;0.009;0.276;
20200827_191405;0.855;4.326;10.836;0.025;0.046;-0.025;
20200827_191405;-0.436;4.501;8.966;-0.010;0.062;0.058;
20200827_191405;0.244;3.972;9.780;-0.035;0.055;0.123;
20200827_191405;0.757;4.829;6.977;0.059;0.075;-0.166;
20200827_191406;0.500;4.729;13.740;-0.050;-0.029;-0.291;
20200827_191406;0.505;3.127;6.603;-0.004;-0.070;-0.065;
20200827_191406;0.055;4.650;9.383;-0.016;-0.072;0.070;
20200827_191406;0.601;4.235;9.646;-0.044;-0.045;-0.012;
20200827_191406;-0.668;3.050;4.506;0.043;-0.016;0.060;
20200827_191406;-0.613;6.069;9.136;0.016;-0.035;0.137;
20200827_191406;-0.795;5.277;7.858;0.029;-0.012;0.218;
20200827_191406;-0.273;4.772;7.084;-0.023;0.077;0.217;
20200827_191406;1.365;3.565;8.104;0.067;0.060;-0.077;
20200827_191407;0.223;5.318;8.387;0.037;0.025;-0.234;
20200827_191407;0.725;4.997;7.623;0.011;-0.071;-0.143;
20200827_191407;-0.010;4.219;8.794;0.049;-0.106;-0.003;
20200827_191407;0.675;5.272;10.204;-0.007;0.012;0.211;
20200827_191407;0.086;3.208;7.128;0.019;0.102;0.323;
20200827_191407;0.249;4.611;9.249;-0.012;0.153;0.013;
20200827_191407;1.786;5.763;10.985;0.008;0.088;-0.262;
20200827_191407;-1.204;3.680;8.617;0.018;0.022;-0.250;
20200827_191407;0.632;4.041;9.136;-0.033;-0.119;-0.055;
20200827_191408;-0.716;5.373;6.756;0.041;0.027;0.298;
20200827_191408;0.934;4.729;11.600;-0.065;0.011;0.088;
20200827_191408;1.911;3.211;5.332;0.024;0.050;-0.134;
20200827_191408;1.630;4.420;10.343;0.004;-0.012;-0.342;
20200827_191408;-0.381;4.214;7.180;0.026;0.000;-0.232;
20200827_191408;0.024;4.877;11.595;-0.011;-0.084;0.022;
20200827_191408;-0.223;3.342;6.512;0.010;0.070;0.135;
20200827_191408;0.551;5.440;10.575;-0.050;0.045;-0.020;
20200827_191408;-0.591;3.958;8.308;0.021;0.008;-0.239;
20200827_191408;0.567;5.672;10.707;0.010;-0.058;-0.045;
20200827_191409;-0.383;3.757;8.169;-0.022;-0.024;-0.202;
20200827_191409;0.867;4.721;9.287;-0.004;-0.146;-0.367;
20200827_191409;-0.845;4.082;10.214;0.051;-0.181;-0.126;
20200827_191409;-0.345;4.719;10.388;0.017;-0.107;0.307;
20200827_191409;0.110;4.180;8.519;0.013;-0.105;0.176;
20200827_191409;-0.725;4.681;7.894;-0.013;-0.068;0.210;
20200827_191409;-0.469;4.192;10.003;0.036;-0.025;0.312;
20200827_191409;0.625;5.052;8.703;-0.048;0.050;0.278;
20200827_191409;0.350;2.172;6.618;0.000;0.078;0.000;
20200827_191410;0.644;4.211;10.307;-0.031;0.112;-0.019;
20200827_191410;0.634;4.812;6.234;0.046;0.032;-0.118;
20200827_191410;0.091;4.870;10.865;-0.094;0.005;-0.046;
20200827_191410;-0.488;3.012;5.804;0.059;0.004;0.058;
20200827_191410;1.044;4.614;10.630;-0.027;-0.027;0.086;
20200827_191410;0.314;4.808;7.927;0.040;0.079;0.093;
20200827_191410;0.690;4.288;10.460;-0.043;0.022;-0.024;
20200827_191410;-0.534;5.356;6.460;0.020;0.100;0.088;
20200827_191410;-0.223;4.741;5.988;0.030;-0.003;-0.027;
20200827_191410;0.081;4.106;9.225;-0.049;0.053;-0.040;
20200827_191411;0.692;4.310;7.187;0.021;-0.049;-0.155;
20200827_191411;0.639;4.559;11.123;-0.033;-0.091;-0.186;
20200827_191411;-0.692;4.978;9.354;-0.006;-0.123;0.036;
20200827_191411;0.285;4.793;7.377;0.021;-0.045;0.413;
20200827_191411;0.903;4.499;8.337;0.001;0.041;0.231;
20200827_191411;-0.275;4.073;5.725;0.047;0.089;0.223;
20200827_191411;0.199;3.381;8.040;0.017;0.075;0.094;
20200827_191411;0.395;5.104;10.135;0.020;0.146;0.158;
20200827_191411;0.804;4.946;10.568;0.055;0.131;-0.010;
20200827_191412;0.539;5.397;8.011;-0.031;0.151;-0.074;
20200827_191412;0.309;4.286;5.334;0.038;0.086;-0.304;
20200827_191412;0.728;4.721;11.037;-0.050;-0.040;-0.317;
20200827_191412;-1.070;4.681;7.496;0.011;-0.070;-0.188;
20200827_191412;-0.326;4.410;11.638;-0.035;-0.018;0.328;
20200827_191412;1.745;6.543;8.938;-0.047;0.102;0.279;
20200827_191412;1.456;4.666;6.199;0.028;0.164;-0.161;
20200827_191412;0.912;4.518;9.239;-0.003;0.004;-0.606;
20200827_191412;-0.400;4.257;7.539;0.071;-0.028;-0.324;
20200827_191412;0.864;4.190;10.913;-0.012;-0.141;-0.247;
20200827_191413;-0.534;5.157;8.423;0.018;-0.137;-0.010;
20200827_191413;-1.547;4.187;7.094;0.008;-0.083;0.168;
20200827_191413;1.425;4.015;6.910;0.013;-0.110;-0.003;
20200827_191413;-0.316;3.603;8.533;0.042;-0.065;-0.105;
20200827_191413;0.584;5.320;10.341;-0.027;-0.124;-0.097;
20200827_191413;0.199;4.453;6.560;0.044;-0.162;-0.023;
20200827_191413;-0.479;5.456;10.858;-0.024;-0.084;0.132;
20200827_191413;-0.247;4.183;7.518;0.026;0.054;0.381;
20200827_191413;1.235;2.998;9.230;-0.018;0.038;0.073;
20200827_191414;0.816;4.245;8.054;-0.054;0.050;-0.119;
20200827_191414;0.589;4.884;8.701;0.012;-0.073;-0.244;
20200827_191414;1.094;4.875;11.715;-0.036;-0.078;0.079;
20200827_191414;-1.199;5.511;5.981;0.096;-0.016;0.086;
20200827_191414;0.244;3.187;7.468;0.004;-0.051;0.059;
20200827_191414;-1.209;4.752;8.282;0.011;-0.075;0.228;
20200827_191414;1.738;3.666;10.197;0.016;-0.016;0.228;
20200827_191414;1.918;5.818;10.020;-0.059;0.016;0.186;
20200827_191414;0.673;4.247;5.641;0.041;0.111;0.106;
20200827_191414;-0.615;4.537;9.261;0.055;0.125;0.082;
20200827_191415;0.208;3.737;5.461;0.060;0.169;0.193;
20200827_191415;0.613;4.235;9.986;-0.032;0.201;0.113;
20200827_191415;1.532;6.134;7.434;0.030;0.216;-0.150;
20200827_191415;0.012;4.214;8.894;-0.008;0.095;-0.569;
20200827_191415;0.385;4.362;6.902;0.040;-0.069;-0.514;
20200827_191415;-0.347;4.106;9.524;0.016;-0.165;-0.234;
20200827_191415;-1.142;4.604;6.874;0.015;-0.141;0.199;
20200827_191415;0.390;4.915;10.094;-0.015;-0.073;0.178;
20200827_191415;0.630;4.350;9.002;0.049;-0.098;-0.070;
20200827_191416;0.476;4.061;11.439;-0.034;-0.078;0.050;
20200827_191416;-0.077;5.145;7.700;-0.006;-0.043;0.184;
20200827_191416;-0.915;4.611;8.882;0.020;0.020;0.146;
20200827_191416;-0.275;4.824;6.395;-0.007;0.015;0.104;
20200827_191416;-0.824;3.898;12.488;-0.018;0.094;0.266;
20200827_191416;1.966;5.725;9.395;0.028;0.122;0.117;
20200827_191416;0.062;5.107;9.086;0.043;0.098;-0.256;
20200827_191416;2.064;4.075;6.103;-0.005;-0.067;-0.522;
20200827_191416;0.144;4.281;9.785;-0.093;-0.146;-0.288;
20200827_191416;-0.101;4.329;9.143;-0.008;-0.086;0.079;
20200827_191417;-1.020;4.573;8.772;0.012;-0.096;0.075;
20200827_191417;-0.201;4.013;7.970;0.021;-0.022;0.419;
20200827_191417;0.939;4.618;9.297;-0.023;0.056;0.355;
20200827_191417;0.486;5.588;8.495;0.000;0.140;0.111;
20200827_191417;0.067;4.334;9.584;0.011;0.098;-0.121;
20200827_191417;0.476;4.096;7.736;-0.015;0.048;-0.151;
20200827_191417;-0.644;4.841;5.933;0.096;0.075;-0.073;
20200827_191417;1.092;4.602;9.057;-0.064;-0.013;-0.133;
20200827_191417;1.607;5.325;8.145;0.005;-0.077;-0.268;
20200827_191418;0.223;4.446;8.083;-0.032;-0.055;-0.157;
20200827_191418;-1.312;3.675;5.897;0.037;-0.082;-0.034;
20200827_191418;0.737;4.808;8.301;-0.061;-0.035;0.167;
20200827_191418;0.400;4.180;8.219;-0.002;-0.017;0.078;
20200827_191418;1.640;6.424;11.645;-0.014;-0.025;0.035;
20200827_191418;-0.493;4.029;11.083;-0.061;0.055;0.030;
20200827_191418;1.075;5.844;4.970;0.070;-0.004;0.083;
20200827_191418;-0.283;5.373;9.294;-0.023;-0.011;-0.046;
20200827_191418;1.403;3.369;7.666;0.015;-0.058;-0.003;
20200827_191419;1.437;5.713;8.356;-0.039;-0.068;0.000;
20200827_191419;0.352;6.012;5.662;0.038;-0.088;-0.069;
20200827_191419;-0.275;3.419;10.362;0.009;0.016;0.193;
20200827_191419;0.196;4.305;7.262;0.030;-0.022;0.139;
20200827_191419;-0.194;5.061;11.150;-0.034;0.048;0.251;
20200827_191419;0.577;5.816;8.200;-0.032;0.165;0.418;
20200827_191419;0.723;3.764;7.039;-0.012;0.257;-0.035;
20200827_191419;1.243;3.958;7.554;-0.046;0.170;-0.227;
20200827_191419;0.551;5.363;9.459;0.018;0.165;-0.372;
20200827_191420;1.044;4.532;10.460;-0.037;-0.002;-0.527;
20200827_191420;-0.177;5.332;7.221;0.041;-0.060;-0.346;
20200827_191420;1.159;4.044;7.977;-0.011;-0.143;-0.382;
20200827_191420;-2.555;4.247;7.951;0.060;-0.089;0.020;
20200827_191420;0.857;4.741;8.880;0.021;-0.176;0.208;
20200827_191420;-0.038;4.192;7.290;0.014;0.009;0.157;
20200827_191420;0.491;4.190;8.116;-0.013;-0.044;-0.074;
20200827_191420;-0.515;4.444;6.330;0.019;0.088;0.217;
20200827_191420;0.745;4.487;11.835;-0.081;-0.016;-0.007;
20200827_191420;1.264;5.339;6.960;0.011;0.053;-0.105;
20200827_191421;1.094;4.810;9.792;0.004;-0.037;-0.433;
20200827_191421;0.484;3.891;6.606;-0.011;-0.090;-0.357;
20200827_191421;-0.223;4.652;7.551;-0.014;-0.164;-0.088;
20200827_191421;-0.192;4.638;9.529;-0.049;-0.059;0.139;
20200827_191421;-0.812;5.112;6.747;0.076;-0.025;0.183;
20200827_191421;-0.311;4.183;5.406;0.048;0.088;0.178;
20200827_191421;0.931;3.989;9.661;0.006;0.093;0.096;
20200827_191421;1.094;4.695;9.290;-0.092;0.105;-0.135;
20200827_191421;0.177;5.368;9.244;0.031;0.027;-0.283;
20200827_191422;-0.098;5.732;9.754;-0.007;-0.035;-0.327;
20200827_191422;-0.306;5.509;4.475;0.130;-0.145;-0.288;
20200827_191422;-0.438;3.938;7.630;-0.005;-0.127;0.021;
20200827_191422;0.871;5.866;9.155;0.031;-0.135;-0.068;
20200827_191422;-0.113;4.161;9.352;0.057;-0.069;-0.015;
20200827_191422;0.697;4.781;7.736;-0.029;-0.145;-0.031;
20200827_191422;0.057;5.320;6.785;0.028;-0.038;0.036;
20200827_191422;0.431;3.445;8.121;-0.033;-0.106;0.010;
20200827_191422;-0.318;4.520;7.286;-0.036;-0.055;0.073;
20200827_191422;-0.888;4.664;8.478;-0.047;-0.041;0.169;
20200827_191423;0.237;5.495;6.323;0.016;-0.076;0.159;
20200827_191423;0.426;3.661;10.707;-0.065;-0.111;0.025;
20200827_191423;0.582;4.293;9.682;-0.038;-0.077;0.129;
20200827_191423;-0.759;6.096;7.851;0.013;-0.061;0.200;
20200827_191423;0.730;4.822;8.274;-0.057;-0.007;0.245;
20200827_191423;0.419;3.936;9.325;0.020;0.115;0.338;
20200827_191423;0.115;4.951;7.197;0.047;0.243;0.206;
20200827_191423;0.558;4.463;7.448;0.025;0.160;0.036;
20200827_191423;-0.261;4.774;11.396;-0.064;0.155;0.035;
20200827_191424;-0.611;4.432;7.681;0.044;0.203;0.033;
20200827_191424;1.089;4.041;8.092;0.020;0.130;-0.247;
20200827_191424;0.761;4.044;5.239;0.030;-0.013;-0.351;
20200827_191424;-0.527;3.728;11.377;-0.085;-0.105;-0.185;
20200827_191424;-0.275;5.011;7.535;-0.003;-0.080;0.127;
20200827_191424;0.819;5.006;8.538;0.008;-0.026;0.019;
20200827_191424;-0.723;3.450;6.002;0.020;0.017;0.028;
20200827_191424;-0.651;4.614;11.863;-0.080;0.047;0.247;
20200827_191424;0.558;4.535;7.168;0.040;0.047;-0.011;
20200827_191425;-0.553;5.052;8.303;-0.008;0.058;-0.154;
20200827_191425;1.614;4.101;12.115;0.027;-0.029;-0.179;
20200827_191425;0.792;4.568;9.139;-0.041;-0.062;-0.236;
20200827_191425;-0.180;4.508;5.995;0.094;-0.160;-0.253;
20200827_191425;-1.142;4.515;9.278;-0.027;-0.129;0.065;
20200827_191425;-0.127;3.867;10.851;0.015;-0.203;0.226;
20200827_191425;-0.687;3.476;10.044;-0.072;-0.048;0.488;
20200827_191425;-0.366;4.887;7.582;0.021;0.002;0.537;
20200827_191425;2.126;4.626;9.335;0.024;0.165;0.292;
20200827_191425;0.704;3.558;5.971;0.043;0.189;-0.069;
20200827_191426;0.326;4.463;10.879;-0.072;0.085;-0.180;
20200827_191426;-0.388;5.011;7.980;-0.012;0.085;-0.018;
20200827_191426;-0.053;4.757;9.158;0.008;0.096;0.088;
20200827_191426;0.062;4.168;7.549;0.043;0.053;0.077;
20200827_191426;0.812;4.487;11.119;-0.071;-0.021;-0.155;
20200827_191426;0.187;4.472;7.501;0.024;0.016;-0.061;
20200827_191426;0.247;3.998;9.055;-0.024;0.050;-0.003;
20200827_191426;0.122;5.124;9.014;0.013;0.027;0.099;
20200827_191426;0.666;4.424;10.570;-0.052;0.077;0.157;
20200827_191427;0.196;5.013;6.699;-0.037;0.105;0.021;
20200827_191427;0.548;4.884;9.057;0.010;0.081;-0.169;
20200827_191427;-1.032;3.462;7.168;0.016;0.031;-0.187;
20200827_191427;0.213;4.118;8.066;0.085;-0.034;-0.083;
20200827_191427;-0.491;3.251;9.744;-0.057;-0.066;-0.088;
20200827_191427;0.577;3.838;8.145;0.021;-0.073;0.047;
20200827_191427;0.529;5.054;10.365;-0.018;-0.037;0.071;
20200827_191427;0.984;3.761;5.974;0.058;-0.007;0.021;
20200827_191427;-0.414;4.963;8.947;0.062;0.022;-0.035;
20200827_191427;0.582;4.223;8.911;-0.035;-0.059;-0.041;
20200827_191428;-0.141;4.271;8.849;-0.018;0.002;0.082;
20200827_191428;-0.484;5.236;5.775;-0.005;-0.002;0.109;
20200827_191428;0.352;5.250;6.139;0.042;0.009;0.202;
20200827_191428;0.424;4.338;9.993;-0.035;0.053;0.001;
20200827_191428;0.666;3.816;9.419;0.030;0.050;-0.076;
20200827_191428;-0.785;4.724;10.108;-0.028;-0.024;-0.220;
20200827_191428;1.109;3.797;7.111;-0.004;-0.104;-0.229;
20200827_191428;-1.444;4.793;7.314;0.078;-0.021;0.038;
20200827_191428;0.376;3.893;8.966;-0.033;-0.047;0.112;
20200827_191429;0.697;4.614;11.109;-0.006;-0.020;0.018;
20200827_191429;0.455;4.571;10.228;0.018;-0.065;-0.060;
20200827_191429;-0.776;4.065;7.992;0.021;-0.077;0.125;
20200827_191429;-1.192;4.092;8.545;-0.024;-0.016;0.365;
20200827_191429;-0.706;3.977;7.209;0.033;0.046;0.483;
20200827_191429;0.795;3.627;8.068;0.103;0.094;0.291;
20200827_191429;0.421;3.821;10.673;0.067;0.125;0.050;
20200827_191429;0.678;4.293;8.684;0.011;0.096;0.029;
20200827_191429;1.245;5.686;10.386;-0.008;0.105;-0.055;
20200827_191430;1.425;4.276;6.179;0.074;0.043;-0.054;
20200827_191430;-0.630;5.212;8.080;0.051;0.062;-0.017;
20200827_191430;0.218;4.453;8.521;-0.005;-0.019;-0.007;
20200827_191430;-0.297;4.199;7.621;0.016;0.064;0.234;
20200827_191430;0.165;5.363;11.404;-0.037;0.063;0.236;
20200827_191430;-0.010;4.381;8.308;-0.044;0.139;0.189;
20200827_191430;1.537;4.305;7.688;-0.022;0.043;-0.133;
20200827_191430;-0.005;5.262;8.770;0.004;0.091;-0.148;
20200827_191430;-0.098;3.938;6.165;0.052;-0.031;-0.092;
20200827_191430;-0.024;4.444;9.143;-0.030;-0.006;0.062;
20200827_191431;0.266;5.078;9.467;-0.044;0.011;0.050;
20200827_191431;0.666;4.403;8.104;0.017;0.077;0.061;
20200827_191431;0.558;4.975;10.472;-0.036;0.091;-0.030;
20200827_191431;1.626;5.543;11.279;-0.004;0.063;-0.125;
20200827_191431;-0.321;4.027;6.503;0.021;0.041;-0.175;
20200827_191431;0.347;4.970;9.653;0.021;0.039;0.061;
20200827_191431;-1.061;4.422;7.621;-0.006;0.113;0.044;
20200827_191431;-0.034;3.730;6.325;0.006;0.031;-0.117;
20200827_191431;0.572;4.927;10.695;-0.045;0.039;-0.180;
20200827_191432;1.300;3.397;8.808;-0.065;-0.021;-0.324;
20200827_191432;0.302;4.822;7.709;0.020;-0.097;-0.402;
20200827_191432;0.098;5.322;6.728;0.076;-0.131;-0.206;
20200827_191432;-0.417;3.938;10.379;0.030;-0.139;-0.022;
20200827_191432;0.306;4.068;9.996;-0.054;-0.119;0.081;
20200827_191432;-0.326;4.527;8.102;0.026;-0.044;0.168;
20200827_191432;0.096;5.404;10.539;-0.051;-0.056;0.049;
20200827_191432;-0.180;4.130;6.340;0.078;-0.029;0.068;
20200827_191432;0.297;5.428;8.562;-0.004;-0.077;0.001;
20200827_191433;0.749;3.440;7.494;0.027;-0.076;0.012;
20200827_191433;0.745;3.929;10.827;0.014;-0.060;0.091;
20200827_191433;0.127;5.131;10.695;-0.007;-0.018;0.232;
20200827_191433;0.594;4.259;7.731;0.041;-0.009;0.183;
20200827_191433;0.697;4.336;10.187;0.018;0.082;0.188;
20200827_191433;-0.175;5.104;8.004;0.035;0.141;0.034;
20200827_191433;0.548;4.147;9.622;0.019;0.120;-0.068;
20200827_191433;-0.476;5.148;10.532;-0.041;0.105;-0.078;
20200827_191433;0.503;4.147;8.380;-0.032;0.130;0.033;
20200827_191433;0.259;4.427;8.698;0.017;0.116;-0.141;
20200827_191434;0.390;4.638;8.815;-0.047;0.056;-0.284;
20200827_191434;0.400;4.276;6.910;0.047;-0.013;-0.345;
20200827_191434;0.306;5.250;8.195;0.017;-0.113;-0.364;
20200827_191434;-0.311;4.891;8.600;0.006;-0.138;-0.085;
20200827_191434;0.136;4.695;9.515;0.013;-0.083;0.073;
20200827_191434;0.639;5.059;11.217;-0.066;-0.044;-0.015;
20200827_191434;0.012;4.628;9.268;-0.045;0.009;-0.060;
20200827_191434;0.175;3.598;7.233;0.003;-0.007;-0.258;
20200827_191434;-0.005;4.640;9.268;-0.008;-0.071;-0.304;
20200827_191435;-0.558;5.021;5.533;0.043;-0.021;-0.040;
20200827_191435;-0.007;4.178;7.331;0.106;-0.043;-0.036;
20200827_191435;0.148;5.646;8.997;-0.002;-0.130;-0.114;
20200827_191435;0.965;3.917;7.523;0.025;-0.091;-0.108;
20200827_191435;0.443;4.087;12.656;0.012;-0.131;-0.165;
20200827_191435;-0.141;5.069;10.108;-0.031;-0.203;-0.134;
20200827_191435;0.043;4.005;7.626;0.048;-0.164;0.058;
20200827_191435;-0.421;4.827;10.331;0.025;-0.142;0.171;
20200827_191435;-0.565;4.398;7.688;0.048;-0.057;0.291;
20200827_191436;1.523;4.379;9.850;0.035;-0.012;0.249;
20200827_191436;0.385;4.757;10.008;0.002;0.043;0.157;
20200827_191436;-0.876;4.410;8.028;0.004;0.130;0.353;
20200827_191436;0.845;4.456;7.920;0.028;0.214;0.193;
20200827_191436;2.286;4.247;9.850;0.037;0.021;-0.339;
20200827_191436;0.318;4.056;6.776;0.095;0.078;-0.144;
20200827_191436;-0.007;5.648;8.815;0.018;-0.038;-0.233;
20200827_191436;0.273;4.360;8.030;0.013;-0.130;-0.163;
20200827_191436;-0.747;4.784;10.029;0.008;-0.076;0.179;
20200827_191436;1.142;4.650;10.467;0.009;0.041;0.271;
20200827_191437;0.148;3.759;7.700;0.015;0.054;0.119;
20200827_191437;0.879;4.106;7.453;-0.010;0.054;0.061;
20200827_191437;0.620;4.211;8.016;-0.046;0.053;-0.013;
20200827_191437;0.323;5.126;6.196;0.002;0.043;-0.129;
20200827_191437;-0.230;4.372;10.860;-0.061;0.005;-0.063;
20200827_191437;0.354;4.377;8.681;-0.018;0.026;0.022;
20200827_191437;-0.055;4.389;6.869;0.011;0.042;-0.063;
20200827_191437;0.165;4.468;10.961;-0.061;0.016;0.047;
20200827_191437;0.745;5.641;10.096;0.028;-0.017;-0.055;
20200827_191438;0.783;4.369;7.405;0.027;-0.035;-0.103;
20200827_191438;0.584;4.453;10.017;-0.012;-0.074;-0.146;
20200827_191438;-0.266;4.618;6.895;0.017;-0.055;-0.054;
20200827_191438;-0.512;3.996;8.950;0.042;-0.024;0.218;
20200827_191438;0.359;4.911;10.733;-0.024;0.014;0.326;
20200827_191438;0.551;5.540;8.729;0.019;0.086;0.137;
20200827_191438;0.656;3.974;8.452;-0.012;0.065;-0.001;
20200827_191438;0.917;3.903;10.642;-0.038;0.030;-0.131;
20200827_191438;-1.360;4.630;5.605;0.031;0.004;-0.198;
20200827_191439;0.323;3.926;7.384;0.043;-0.055;-0.007;
20200827_191439;0.326;4.968;8.499;-0.004;-0.018;0.046;
20200827_191439;0.694;4.812;8.064;0.019;0.006;-0.066;
20200827_191439;0.294;3.757;9.878;0.040;-0.011;-0.170;
20200827_191439;-0.144;4.568;11.044;-0.030;-0.045;-0.070;
20200827_191439;-0.907;3.017;7.626;-0.011;-0.021;0.067;
20200827_191439;-0.089;4.350;8.277;-0.002;-0.069;0.119;
20200827_191439;-1.013;4.784;9.285;0.003;0.093;0.226;
20200827_191439;-0.156;4.685;6.325;0.001;0.091;0.298;
20200827_191439;0.452;3.673;7.166;0.018;0.054;0.000;
20200827_191440;1.202;5.308;9.187;-0.001;0.023;-0.272;
20200827_191440;-0.220;4.934;6.062;0.013;-0.019;-0.180;
20200827_191440;-0.268;4.633;9.706;0.025;-0.038;-0.066;
20200827_191440;0.048;5.669;9.579;-0.028;0.018;0.010;
20200827_191440;0.491;3.000;9.218;0.000;0.002;-0.083;
20200827_191440;0.328;4.240;8.504;0.003;-0.048;-0.062;
20200827_191440;-1.674;4.446;11.004;-0.014;0.045;0.128;
20200827_191440;0.168;4.568;4.527;0.096;0.163;0.452;
20200827_191440;0.852;3.895;7.087;0.042;0.123;-0.197;
20200827_191441;-0.192;5.835;10.518;-0.018;0.078;-0.249;
20200827_191441;0.280;4.049;7.386;0.027;-0.004;-0.184;
20200827_191441;-0.400;4.846;9.711;0.022;0.008;-0.131;
20200827_191441;0.041;5.363;8.511;-0.007;-0.053;-0.183;
20200827_191441;0.407;4.657;8.650;0.029;-0.066;-0.150;
20200827_191441;1.065;5.088;7.925;0.022;-0.131;-0.264;
20200827_191441;0.788;4.714;11.669;-0.034;-0.137;-0.278;
20200827_191441;0.156;5.138;8.224;-0.022;-0.165;-0.095;
20200827_191441;-0.833;4.420;8.135;0.031;-0.124;0.212;
20200827_191441;-0.215;4.693;10.599;-0.027;-0.109;0.246;
20200827_191442;0.160;5.389;6.790;0.040;-0.057;0.155;
20200827_191442;-0.057;3.867;9.682;-0.043;0.071;0.207;
20200827_191442;1.075;4.202;10.252;-0.051;-0.049;-0.154;
20200827_191442;-0.266;5.935;8.346;0.014;0.001;0.065;
20200827_191442;-0.907;4.022;8.277;0.020;-0.011;0.210;
20200827_191442;0.627;4.389;10.254;-0.019;0.055;0.274;
20200827_191442;1.705;4.542;9.527;-0.041;0.014;-0.081;
20200827_191442;0.589;5.239;7.106;0.036;0.032;-0.028;
20200827_191442;-0.101;3.558;9.464;-0.041;0.070;0.004;
20200827_191443;0.781;4.496;8.674;-0.003;-0.001;-0.046;
20200827_191443;0.122;4.096;6.754;0.028;0.017;-0.003;
20200827_191443;-0.448;3.682;7.657;0.078;0.036;0.069;
20200827_191443;-0.103;4.822;8.425;0.022;0.090;0.188;
20200827_191443;0.148;4.334;8.155;-0.006;0.096;0.066;
20200827_191443;0.589;4.178;9.210;-0.046;0.036;-0.181;
20200827_191443;0.644;5.301;8.217;-0.044;-0.039;-0.138;
20200827_191443;-0.338;4.408;7.226;0.049;0.002;0.027;
20200827_191443;0.661;5.250;10.355;-0.021;-0.067;-0.050;
20200827_191444;1.125;5.277;6.424;0.040;-0.058;-0.080;
20200827_191444;-0.919;3.869;11.729;-0.006;-0.024;0.131;
20200827_191444;0.306;4.393;9.993;-0.060;0.045;0.307;
20200827_191444;0.136;5.607;3.735;0.113;0.092;-0.040;
20200827_191444;0.273;3.881;8.619;0.036;0.072;-0.017;
20200827_191444;0.474;7.204;7.314;-0.068;0.024;-0.044;
20200827_191444;-1.267;7.240;2.351;0.139;-0.015;-0.076;
20200827_191444;0.529;5.346;7.298;0.204;0.026;0.031;
20200827_191444;0.639;5.037;8.799;0.175;-0.031;-0.105;
20200827_191444;-0.615;4.168;9.007;-0.094;0.000;-0.013;
20200827_191445;0.721;5.212;9.151;-0.025;-0.054;0.019;
20200827_191445;1.015;4.946;9.977;-0.015;0.060;0.054;
20200827_191445;-0.781;4.954;7.599;-0.016;0.017;-0.067;
20200827_191445;2.090;5.025;7.755;0.011;0.011;-0.139;
20200827_191445;0.347;5.856;10.415;0.020;-0.113;-0.439;
20200827_191445;-1.544;4.942;6.237;0.053;-0.113;-0.132;
20200827_191445;-1.188;5.461;6.462;0.047;-0.104;0.241;
20200827_191445;-0.651;5.097;9.546;-0.004;-0.064;0.375;
20200827_191445;0.848;3.553;8.940;0.003;-0.013;0.185;
20200827_191446;-1.204;4.750;10.989;0.017;0.016;0.174;
20200827_191446;0.984;3.531;9.172;-0.045;-0.022;0.226;
20200827_191446;0.740;4.942;8.001;-0.008;0.089;0.164;
20200827_191446;1.188;4.602;8.686;0.008;0.072;-0.139;
20200827_191446;1.317;3.572;7.848;0.014;0.057;-0.215;
20200827_191446;-0.546;4.501;9.613;0.035;0.017;-0.071;
20200827_191446;-0.369;3.836;8.861;0.026;0.072;0.285;
20200827_191446;1.575;5.346;7.724;0.057;0.150;0.172;
20200827_191446;0.323;4.379;10.166;-0.049;0.123;-0.130;
20200827_191446;-1.111;4.750;6.586;0.030;0.095;0.011;
20200827_191447;1.207;4.130;7.295;0.009;0.049;-0.130;
20200827_191447;-0.156;5.971;7.834;-0.003;0.081;-0.367;
20200827_191447;0.393;3.941;9.299;0.024;-0.069;-0.404;
20200827_191447;-0.455;4.496;11.234;0.003;-0.078;-0.289;
20200827_191447;-0.285;4.166;8.976;-0.010;-0.084;0.029;
20200827_191447;-1.178;3.864;8.471;-0.038;-0.015;0.058;
20200827_191447;0.898;4.956;7.970;-0.007;-0.033;0.048;
20200827_191447;0.800;4.470;7.393;0.029;-0.040;-0.093;
20200827_191447;0.017;4.298;9.349;-0.028;-0.090;-0.259;
20200827_191448;-0.412;4.724;8.645;0.029;-0.121;-0.008;
20200827_191448;-0.244;4.140;7.800;0.008;-0.135;0.149;
20200827_191448;-0.223;5.444;9.471;-0.017;-0.060;0.194;
20200827_191448;1.044;5.001;5.665;0.077;-0.052;0.142;
20200827_191448;0.249;4.606;6.529;0.016;0.010;0.127;
20200827_191448;1.781;4.345;10.180;-0.024;-0.004;-0.139;
20200827_191448;-0.400;3.472;8.495;0.022;0.002;-0.144;
20200827_191448;-1.147;4.501;10.798;0.015;-0.024;-0.002;
20200827_191448;-0.079;4.480;9.263;-0.002;0.045;0.298;
20200827_191448;-0.213;5.516;7.604;0.024;0.051;0.232;
20200827_191449;0.936;5.219;7.604;-0.002;0.113;0.122;
20200827_191449;0.388;5.126;8.736;-0.021;0.103;-0.092;
20200827_191449;0.524;4.111;6.249;0.045;0.059;-0.139;
20200827_191449;0.129;4.032;8.712;0.008;-0.023;-0.223;
20200827_191449;0.041;5.133;7.829;-0.012;-0.083;-0.135;
20200827_191449;0.026;4.199;8.016;-0.019;-0.055;0.014;
20200827_191449;0.539;4.494;9.902;-0.028;-0.114;-0.041;
20200827_191449;-0.103;4.381;7.968;0.000;-0.038;0.150;
20200827_191449;-0.251;3.203;7.956;-0.031;-0.074;0.025;
20200827_191450;0.915;4.891;6.230;0.006;-0.004;0.130;
20200827_191450;-1.128;5.028;8.071;0.026;0.041;0.231;
20200827_191450;0.828;5.341;10.604;-0.005;0.055;0.250;
20200827_191450;0.299;5.076;8.337;0.047;0.096;0.244;
20200827_191450;0.833;4.539;9.373;0.009;0.114;0.195;
20200827_191450;0.251;4.975;6.847;0.034;0.174;0.020;
20200827_191450;2.128;4.195;5.638;0.015;0.077;-0.335;
20200827_191450;1.650;4.609;8.135;-0.030;0.032;-0.363;
20200827_191450;-0.268;4.990;7.999;-0.002;-0.032;-0.255;
20200827_191450;0.024;4.477;10.020;0.010;-0.024;-0.175;
20200827_191451;-0.505;4.685;11.231;-0.020;-0.060;-0.062;
20200827_191451;-0.807;4.508;7.812;0.006;0.004;0.188;
20200827_191451;-0.778;3.883;7.805;0.035;0.007;0.156;
20200827_191451;-0.625;4.743;9.474;0.017;0.039;0.137;
20200827_191451;0.536;3.510;5.344;0.043;0.103;0.002;
20200827_191451;1.125;4.453;11.612;0.022;0.055;-0.318;
20200827_191451;1.836;4.381;8.179;-0.034;-0.059;-0.351;
20200827_191451;0.057;4.590;7.597;0.009;-0.097;-0.204;
20200827_191451;-0.577;5.200;10.578;-0.003;-0.123;-0.074;
20200827_191452;0.883;3.519;8.176;0.032;-0.139;-0.003;
20200827_191452;-1.683;4.211;8.277;0.033;-0.083;0.094;
20200827_191452;0.622;4.257;9.122;-0.044;-0.096;0.197;
20200827_191452;0.136;4.640;6.773;0.012;-0.026;0.185;
20200827_191452;0.637;4.752;9.859;0.009;0.023;0.155;
20200827_191452;-0.072;5.459;9.795;-0.004;0.041;0.091;
20200827_191452;0.292;4.920;8.234;-0.011;0.033;0.126;
20200827_191452;0.050;4.650;8.033;0.008;0.013;0.032;
20200827_191452;0.855;4.384;6.041;0.033;-0.009;-0.003;
20200827_191452;-0.129;4.432;8.813;0.043;0.118;0.076;
20200827_191453;1.025;4.391;9.052;-0.016;-0.022;-0.439;
20200827_191453;0.680;5.478;8.406;-0.047;-0.061;-0.226;
20200827_191453;-1.077;3.709;8.890;0.012;0.038;0.051;
20200827_191453;0.084;4.717;11.150;-0.005;-0.024;-0.040;
20200827_191453;0.292;4.156;7.697;-0.003;0.004;-0.051;
20200827_191453;0.084;5.454;6.888;0.001;-0.045;0.124;
20200827_191453;0.019;4.633;9.400;-0.052;0.026;0.250;
20200827_191453;0.093;3.670;7.774;0.014;0.045;0.049;
20200827_191453;0.690;4.444;10.750;0.013;-0.005;-0.048;
20200827_191454;0.675;4.187;8.952;0.003;-0.008;-0.033;
20200827_191454;0.795;4.374;7.872;0.033;-0.020;-0.094;
20200827_191454;0.426;4.781;10.436;-0.037;-0.022;-0.149;
20200827_191454;0.371;4.257;5.533;0.031;-0.004;-0.020;
20200827_191454;0.091;3.546;8.483;0.037;0.023;-0.053;
20200827_191454;0.227;4.640;9.471;-0.066;-0.032;-0.190;
20200827_191454;-0.917;4.183;6.730;0.029;-0.026;0.002;
20200827_191454;-0.426;5.183;11.016;-0.036;-0.011;0.149;
20200827_191454;-0.196;4.511;7.700;-0.024;0.018;0.140;
20200827_191454;0.905;3.874;8.124;-0.041;-0.028;-0.134;
20200827_191455;0.069;4.664;7.096;-0.033;-0.089;-0.302;
20200827_191455;0.249;4.618;8.219;0.029;-0.154;-0.133;
20200827_191455;-0.345;4.827;11.064;-0.029;-0.109;0.147;
20200827_191455;0.654;4.295;8.657;-0.051;-0.090;0.319;
20200827_191455;0.666;4.410;7.369;0.043;0.034;0.261;
20200827_191455;-0.230;4.827;10.611;-0.027;0.036;0.038;
20200827_191455;-0.192;4.233;6.778;0.064;0.040;0.196;
20200827_191455;0.043;4.752;6.835;0.041;0.077;0.224;
20200827_191455;0.287;3.843;9.522;-0.055;0.134;0.094;
20200827_191456;1.089;4.094;7.197;-0.015;0.132;-0.099;
20200827_191456;0.685;4.508;9.565;-0.030;0.102;-0.168;
20200827_191456;0.220;4.281;8.320;-0.034;0.106;-0.129;
20200827_191456;0.431;5.306;6.766;0.005;0.034;-0.178;
20200827_191456;0.376;4.843;8.119;0.003;-0.005;-0.248;
20200827_191456;0.007;4.800;9.005;-0.041;-0.037;-0.242;
20200827_191456;-0.237;4.178;5.839;0.024;-0.045;-0.162;
20200827_191456;-0.273;4.420;7.197;0.019;-0.078;-0.100;
20200827_191456;-0.445;3.529;9.732;-0.076;-0.094;-0.041;
20200827_191456;-0.024;4.326;8.801;0.019;-0.103;0.014;
20200827_191457;0.390;4.987;10.580;-0.003;-0.091;0.070;
20200827_191457;0.184;4.635;7.954;0.005;-0.071;0.102;
20200827_191457;-0.110;5.610;7.195;0.025;-0.021;0.096;
20200827_191457;0.206;4.293;8.945;0.008;-0.017;0.095;
20200827_191457;0.002;4.144;6.081;0.035;0.024;0.091;
20200827_191457;0.299;3.955;6.567;0.015;0.020;0.079;
20200827_191457;0.364;4.118;8.097;-0.007;0.027;-0.032;
20200827_191457;0.151;4.250;8.461;-0.081;0.022;-0.047;
20200827_191457;0.227;4.345;7.336;-0.001;0.036;0.009;
20200827_191458;0.091;4.257;9.493;0.006;0.036;0.022;
20200827_191458;-0.213;4.894;9.124;0.005;0.020;0.001;
20200827_191458;0.271;3.828;9.826;-0.050;0.007;-0.090;
20200827_191458;0.330;4.678;7.834;0.010;0.028;-0.044;
20200827_191458;0.357;4.046;7.932;-0.011;0.017;-0.045;
20200827_191458;0.431;4.535;10.630;-0.027;0.006;-0.077;
20200827_191458;0.903;3.876;7.728;-0.019;-0.013;-0.100;
20200827_191458;-0.570;4.927;9.258;-0.022;0.074;0.005;
20200827_191458;2.365;5.737;7.259;0.050;-0.009;-0.131;
20200827_191459;-0.306;3.601;9.699;-0.052;0.002;-0.232;
20200827_191459;-0.728;4.580;8.452;0.052;-0.053;-0.233;
20200827_191459;-0.060;4.104;7.769;0.058;-0.120;-0.111;
20200827_191459;-0.326;5.753;7.606;0.073;-0.140;-0.016;
20200827_191459;0.836;4.192;9.366;0.032;-0.122;0.078;
20200827_191459;0.642;4.537;7.053;0.037;-0.097;0.076;
20200827_191459;1.350;5.346;7.283;0.054;-0.043;0.036;
20200827_191459;0.718;4.187;8.353;0.000;-0.029;-0.108;
20200827_191459;-0.812;4.769;9.100;-0.021;-0.059;-0.115;
20200827_191459;-0.151;4.762;7.412;0.028;0.030;0.125;
20200827_191500;-0.512;4.398;8.557;0.013;0.053;0.223;
20200827_191500;0.512;4.525;10.221;0.011;0.105;0.182;
20200827_191500;1.202;4.741;8.250;-0.020;0.106;-0.134;
20200827_191500;0.376;4.973;8.648;-0.031;0.049;-0.325;
20200827_191500;1.056;4.123;10.271;-0.035;-0.017;-0.377;
20200827_191500;0.093;5.145;9.962;0.030;-0.176;-0.361;
20200827_191500;-0.773;4.499;8.447;0.038;-0.185;-0.111;
20200827_191500;-0.620;5.301;6.960;0.034;-0.152;0.017;
20200827_191500;1.022;5.054;8.155;0.014;-0.157;-0.019;
20200827_191501;0.096;4.017;7.743;0.044;-0.147;0.011;
20200827_191501;-0.218;4.381;7.381;0.083;-0.151;0.294;
20200827_191501;0.290;3.788;9.668;-0.029;0.029;0.524;
20200827_191501;0.299;4.262;6.898;0.031;0.082;0.246;
20200827_191501;0.407;5.763;7.329;0.008;0.104;0.171;
20200827_191501;0.481;3.371;10.551;-0.050;0.108;0.100;
20200827_191501;0.048;3.809;9.699;-0.043;0.108;0.050;
20200827_191501;1.602;5.404;6.491;0.009;0.011;-0.131;
20200827_191501;-0.091;3.757;10.338;0.004;-0.009;-0.073;
20200827_191501;0.783;5.088;9.024;-0.050;-0.024;0.026;
20200827_191502;-0.589;5.818;6.680;0.044;0.025;0.111;
20200827_191502;-0.156;3.517;10.271;-0.034;0.045;0.193;
20200827_191502;-0.129;3.797;11.516;-0.071;0.063;0.240;
20200827_191502;1.087;3.699;6.735;0.058;0.112;0.259;
20200827_191502;0.725;5.171;10.661;-0.028;0.104;0.174;
20200827_191502;0.867;5.476;10.233;-0.031;0.204;0.261;
20200827_191502;1.135;3.771;8.349;0.048;0.180;-0.092;
20200827_191502;0.929;4.633;9.701;0.031;0.122;-0.278;
20200827_191502;0.096;4.693;6.062;0.011;0.030;-0.257;
20200827_191503;0.955;3.608;5.686;0.081;-0.083;-0.218;
20200827_191503;-0.551;4.209;7.611;0.078;-0.043;0.001;
20200827_191503;-0.642;4.480;9.845;-0.014;-0.025;0.097;
20200827_191503;1.104;3.433;7.393;-0.020;0.002;0.107;
20200827_191503;-1.018;3.634;8.509;-0.050;0.055;0.112;
20200827_191503;0.962;5.318;10.738;-0.005;0.070;0.109;
20200827_191503;0.350;3.859;9.388;-0.052;0.070;0.020;
20200827_191503;1.331;5.679;7.956;0.041;0.091;-0.017;
20200827_191503;-0.208;4.396;8.813;-0.037;0.110;-0.138;
20200827_191503;-0.728;3.747;5.150;0.057;0.030;-0.148;
20200827_191504;0.608;4.214;5.918;0.047;-0.059;-0.288;
20200827_191504;-0.091;5.035;11.179;0.015;-0.073;-0.216;
20200827_191504;-0.148;4.290;8.334;0.021;-0.133;-0.117;
20200827_191504;-0.184;3.938;7.489;-0.011;-0.086;0.034;
20200827_191504;0.488;4.140;11.193;-0.049;-0.086;0.057;
20200827_191504;0.297;4.166;8.578;-0.056;-0.035;0.101;
20200827_191504;0.644;5.456;8.396;0.016;-0.041;0.026;
20200827_191504;0.852;5.030;10.302;0.002;0.001;0.001;
20200827_191504;-0.395;5.047;9.024;0.038;-0.018;-0.053;
20200827_191505;0.754;3.620;6.807;0.038;-0.091;-0.074;
20200827_191505;-0.204;4.161;10.702;-0.030;-0.137;-0.135;
20200827_191505;-1.149;4.439;7.269;-0.015;-0.087;0.356;
20200827_191505;-0.622;5.040;10.649;0.004;0.011;0.532;
20200827_191505;0.716;4.300;9.268;-0.016;0.054;0.402;
20200827_191505;1.298;3.390;7.520;-0.034;0.105;0.206;
20200827_191505;0.673;5.325;8.181;0.063;0.164;0.026;
20200827_191505;1.034;4.757;12.270;-0.054;0.164;-0.086;
20200827_191505;0.256;4.013;5.382;-0.002;0.077;-0.242;
20200827_191505;0.462;4.480;6.122;0.065;0.071;-0.301;
20200827_191506;-0.072;5.341;9.783;0.041;-0.009;-0.094;
20200827_191506;-0.819;5.049;7.793;0.019;-0.011;0.116;
20200827_191506;-0.520;4.051;8.231;-0.007;0.012;0.143;
20200827_191506;0.031;4.968;8.483;-0.007;0.029;0.178;
20200827_191506;0.946;4.257;8.454;0.055;0.064;0.181;
20200827_191506;0.759;4.556;9.768;0.070;0.054;-0.141;
20200827_191506;0.558;5.327;7.288;0.008;0.027;-0.212;
20200827_191506;0.187;3.292;5.559;0.036;0.034;-0.033;
20200827_191506;0.388;4.044;10.625;-0.024;0.082;-0.060;
20200827_191507;0.690;4.365;7.982;0.041;-0.012;-0.097;
20200827_191507;-0.443;4.951;9.661;-0.018;0.023;-0.004;
20200827_191507;-0.192;4.911;4.970;0.133;0.046;0.037;
20200827_191507;0.285;4.271;9.409;0.025;0.028;-0.166;
20200827_191507;-0.431;2.765;8.906;-0.046;-0.089;-0.269;
20200827_191507;0.115;3.965;6.402;0.055;-0.078;-0.033;
20200827_191507;0.132;4.314;12.464;-0.039;-0.094;0.084;
20200827_191507;-0.220;5.698;11.317;-0.016;-0.055;0.140;
20200827_191507;0.747;4.345;8.076;-0.014;-0.004;0.133;
20200827_191507;-0.074;5.337;7.513;0.037;0.056;-0.007;
20200827_191508;0.713;4.662;11.334;0.019;0.082;-0.108;
20200827_191508;-0.783;3.515;6.141;0.119;0.080;-0.186;
20200827_191508;-0.998;3.970;8.100;0.025;0.041;-0.048;
20200827_191508;0.500;4.269;9.316;-0.018;-0.016;-0.177;
20200827_191508;-0.409;5.222;6.649;-0.046;-0.011;-0.120;
20200827_191508;-0.194;4.441;9.519;0.009;-0.029;-0.007;
20200827_191508;0.328;4.633;11.325;-0.067;-0.068;-0.130;
20200827_191508;0.117;4.922;8.744;-0.018;-0.147;-0.202;
20200827_191508;0.026;5.095;9.694;0.048;-0.149;-0.093;
20200827_191509;0.450;5.092;11.102;-0.030;-0.187;-0.081;
20200827_191509;0.014;6.053;8.667;-0.007;-0.149;0.110;
20200827_191509;-0.223;4.592;6.594;-0.041;-0.096;0.174;
20200827_191509;0.153;4.829;7.230;-0.004;-0.048;0.418;
20200827_191509;-0.038;4.966;8.545;0.026;0.145;0.387;
20200827_191509;0.381;4.920;7.278;0.058;0.144;0.117;
20200827_191509;0.622;3.680;8.274;0.054;0.175;-0.022;
20200827_191509;0.309;4.475;9.483;-0.003;0.078;-0.285;
20200827_191509;-0.271;3.460;9.167;-0.039;0.007;-0.273;
20200827_191509;0.026;4.360;10.058;-0.008;-0.010;-0.047;
20200827_191510;0.263;3.814;10.606;-0.054;-0.086;-0.074;
20200827_191510;-0.048;4.638;7.666;0.036;-0.067;0.103;
20200827_191510;-0.639;4.903;4.080;0.083;-0.038;0.173;
20200827_191510;0.512;4.465;10.156;0.014;0.057;0.115;
20200827_191510;0.464;1.913;5.988;0.008;0.012;-0.023;
20200827_191510;0.139;3.776;8.612;-0.061;0.041;0.092;
20200827_191510;0.845;4.379;9.536;-0.001;0.041;-0.006;
20200827_191510;-0.462;3.675;6.797;-0.021;0.092;0.015;
20200827_191510;0.888;4.939;3.529;0.172;0.092;-0.047;
20200827_191511;1.001;4.219;9.029;-0.032;0.042;-0.192;
20200827_191511;0.314;5.207;7.463;-0.027;0.071;-0.104;
20200827_191511;0.038;4.379;7.391;0.029;0.017;-0.268;
20200827_191511;-0.651;4.597;8.789;0.041;-0.067;-0.153;
20200827_191511;0.242;3.460;6.009;-0.002;-0.048;0.016;
20200827_191511;-0.709;4.082;6.258;0.001;0.018;0.049;
20200827_191511;0.081;4.606;9.965;-0.006;-0.021;-0.095;
20200827_191511;0.177;4.762;10.161;-0.027;-0.022;-0.181;
20200827_191511;0.713;4.671;6.134;-0.025;-0.073;-0.283;
20200827_191512;-0.484;4.269;8.265;-0.027;-0.116;-0.137;
20200827_191512;-0.742;4.848;10.336;0.044;-0.109;0.057;
20200827_191512;-0.029;4.575;11.583;-0.025;-0.105;0.199;
20200827_191512;-0.469;3.749;6.668;0.048;-0.032;0.265;
20200827_191512;0.503;2.863;10.987;-0.126;0.005;0.246;
20200827_191512;0.002;4.535;11.095;-0.022;0.078;0.147;
20200827_191512;1.056;4.226;6.021;0.012;0.050;-0.031;
20200827_191512;0.443;2.933;8.095;-0.022;0.037;-0.121;
20200827_191512;-0.043;4.908;9.538;0.026;0.011;-0.085;
20200827_191513;0.417;5.440;9.522;0.048;0.030;0.044;
20200827_191513;0.038;4.700;5.617;0.019;0.015;0.018;
20200827_191513;0.912;4.192;7.247;0.061;-0.004;-0.029;
20200827_191513;0.036;3.639;8.361;-0.013;-0.002;-0.038;
20200827_191513;0.156;4.966;9.127;-0.019;-0.023;-0.008;
20200827_191513;-0.113;4.647;9.562;-0.021;-0.005;0.082;
20200827_191513;0.120;4.688;9.225;-0.032;0.017;0.150;
20200827_191513;0.637;4.231;7.980;-0.016;0.028;0.100;
20200827_191513;0.242;4.578;7.506;-0.010;0.029;0.036;
20200827_191513;0.283;3.785;8.935;-0.041;0.048;-0.032;
20200827_191514;0.378;4.508;10.633;-0.040;0.039;-0.097;
20200827_191514;0.158;4.120;10.800;-0.024;0.005;-0.101;
20200827_191514;0.101;4.489;8.066;-0.011;-0.019;-0.070;
20200827_191514;-0.043;4.175;8.904;-0.048;-0.023;-0.047;
20200827_191514;0.120;3.907;7.760;0.015;-0.019;-0.055;
20200827_191514;0.376;3.807;7.470;0.036;-0.045;-0.062;
20200827_191514;-0.103;4.518;7.709;0.010;-0.064;-0.036;
20200827_191514;-0.077;4.152;10.051;-0.050;-0.059;0.049;
20200827_191514;-0.644;4.604;8.892;-0.014;-0.025;0.134;
20200827_191515;0.251;4.480;9.946;-0.006;-0.021;0.129;
20200827_191515;0.666;5.030;6.730;0.002;-0.004;0.086;
20200827_191515;0.460;4.824;6.721;0.034;0.008;0.095;
20200827_191515;0.472;4.271;5.320;0.067;0.012;0.068;
20200827_191515;-0.026;3.948;7.175;0.052;0.013;0.158;
20200827_191515;0.029;3.709;7.942;0.025;0.059;0.229;
20200827_191515;-0.014;3.582;10.621;-0.024;0.083;0.166;
20200827_191515;0.364;3.340;8.255;-0.027;0.064;0.014;
20200827_191515;0.414;4.286;10.551;-0.017;0.130;0.049;
20200827_191515;0.414;3.467;10.324;-0.060;0.121;-0.080;
20200827_191516;-0.390;4.489;8.894;-0.010;0.096;-0.079;
20200827_191516;0.146;5.655;8.301;0.000;0.065;-0.025;
20200827_191516;0.690;4.843;7.982;-0.019;0.046;-0.146;
20200827_191516;0.709;4.547;6.955;0.032;0.005;-0.318;
20200827_191516;0.481;4.305;6.960;0.055;-0.080;-0.346;
20200827_191516;-0.378;4.348;7.798;0.044;-0.096;-0.234;
20200827_191516;-0.177;3.871;8.890;-0.004;-0.139;-0.136;
20200827_191516;-0.974;3.776;9.131;0.042;-0.084;0.096;
20200827_191516;-0.079;3.960;8.157;-0.029;-0.097;0.198;
20200827_191516;-0.110;4.884;9.349;0.021;-0.056;0.188;
20200827_191517;0.302;4.551;6.515;0.055;-0.013;0.205;
20200827_191517;0.065;4.470;7.592;0.044;0.042;0.233;
20200827_191517;-0.103;4.812;7.728;0.026;0.089;0.202;
20200827_191517;0.256;3.687;8.818;-0.021;0.103;0.079;
20200827_191517;0.733;4.410;9.661;-0.017;0.077;-0.099;
20200827_191517;-0.182;4.547;9.876;-0.011;0.065;-0.209;
20200827_191517;0.575;4.712;8.952;-0.017;-0.013;-0.209;
20200827_191517;-1.166;4.867;8.085;0.001;-0.036;-0.262;
20200827_191517;0.417;4.628;8.234;0.002;-0.119;-0.052;
20200827_191518;0.251;4.384;8.801;-0.031;-0.050;0.144;
20200827_191518;0.419;4.587;10.865;-0.019;-0.020;0.119;
20200827_191518;0.977;4.559;9.179;-0.046;-0.027;-0.143;
20200827_191518;0.910;4.219;10.125;-0.034;-0.066;-0.251;
20200827_191518;-1.046;4.614;9.182;-0.008;-0.048;-0.018;
20200827_191518;0.098;4.997;10.046;-0.008;-0.057;0.206;
20200827_191518;-0.378;5.241;7.779;0.040;0.030;0.390;
20200827_191518;0.670;4.767;6.258;0.097;0.095;0.254;
20200827_191518;-0.113;4.982;5.799;0.094;0.112;0.149;
20200827_191519;1.073;5.528;6.819;0.037;0.151;0.088;
20200827_191519;1.286;3.831;8.566;-0.048;0.132;-0.109;
20200827_191519;0.213;3.723;9.464;-0.056;0.058;-0.453;
20200827_191519;0.050;4.839;10.190;-0.022;-0.114;-0.459;
20200827_191519;0.024;3.745;8.851;-0.021;-0.142;-0.167;
20200827_191519;-0.067;3.555;11.234;-0.038;-0.145;0.017;
20200827_191519;-1.358;6.304;4.403;0.122;-0.213;0.349;
20200827_191519;0.031;4.202;12.586;0.021;-0.086;0.329;
20200827_191519;0.747;1.015;18.282;-0.299;-0.017;0.148;
20200827_191519;-0.079;5.179;7.302;-0.038;-0.037;0.207;
20200827_191520;1.923;4.968;9.831;0.024;-0.007;0.163;
20200827_191520;0.754;4.666;7.053;-0.008;-0.050;-0.049;
20200827_191520;0.036;4.539;4.508;0.114;-0.006;0.042;
20200827_191520;-0.804;5.947;8.866;0.051;0.073;0.217;
20200827_191520;0.019;4.001;7.293;-0.007;0.064;0.186;
20200827_191520;0.124;3.687;8.763;-0.041;0.127;0.255;
20200827_191520;0.924;4.403;8.997;0.027;0.081;-0.037;
20200827_191520;1.070;4.372;8.667;0.019;-0.003;-0.203;
20200827_191520;0.330;4.563;9.318;-0.052;0.010;-0.133;
20200827_191521;0.342;4.719;9.929;-0.034;-0.064;-0.016;
20200827_191521;0.761;5.121;9.230;-0.047;-0.031;0.125;
20200827_191521;0.883;4.415;9.421;0.024;-0.015;0.081;
20200827_191521;-0.431;4.106;7.743;-0.010;0.047;0.156;
20200827_191521;0.168;4.870;8.317;0.024;0.114;0.271;
20200827_191521;-0.103;4.314;8.124;0.001;0.109;0.110;
20200827_191521;1.264;4.635;8.068;0.008;0.078;-0.035;
20200827_191521;-0.634;5.337;11.248;-0.055;0.088;0.083;
20200827_191521;0.967;4.966;7.223;-0.015;0.080;0.168;
20200827_191521;0.479;3.038;8.610;-0.013;0.076;-0.021;
20200827_191522;0.225;4.049;8.645;-0.048;0.036;-0.219;
20200827_191522;-0.110;4.240;11.451;-0.060;-0.127;-0.268;
20200827_191522;-0.180;5.040;9.459;-0.074;-0.108;0.136;
20200827_191522;-0.452;5.622;5.868;0.080;-0.091;0.265;
20200827_191522;0.831;4.681;7.511;-0.052;-0.009;0.236;
20200827_191522;-0.048;3.713;9.155;-0.043;0.060;0.088;
20200827_191522;2.382;4.973;9.802;-0.010;-0.013;0.113;
20200827_191522;-0.840;4.621;8.679;-0.012;0.139;0.205;
20200827_191522;1.044;5.416;8.995;0.012;0.002;0.129;
20200827_191523;-0.575;4.187;6.076;-0.003;0.116;0.144;
20200827_191523;-0.201;5.040;9.371;-0.016;0.116;0.148;
20200827_191523;0.802;3.385;5.495;0.077;0.152;0.015;
20200827_191523;-0.694;4.659;10.183;0.026;0.111;-0.217;
20200827_191523;1.061;4.087;9.021;-0.030;0.043;-0.037;
20200827_191523;0.709;3.433;8.128;-0.027;0.077;-0.134;
20200827_191523;1.602;4.463;9.790;-0.079;-0.008;-0.457;
20200827_191523;-0.409;4.403;8.533;0.030;-0.002;-0.161;
20200827_191523;0.632;5.143;6.500;0.070;0.002;0.088;
20200827_191523;0.505;3.014;9.076;-0.012;0.092;-0.019;
20200827_191524;-0.103;5.282;6.692;0.005;0.070;-0.119;
20200827_191524;0.194;4.958;9.764;0.011;0.038;-0.210;
20200827_191524;-0.654;4.041;11.078;-0.018;-0.007;-0.203;
20200827_191524;-0.378;3.977;7.135;0.016;-0.008;-0.211;
20200827_191524;0.278;5.981;9.759;0.025;-0.152;-0.383;
20200827_191524;0.759;4.312;5.528;0.052;-0.142;-0.152;
20200827_191524;0.220;5.832;8.394;0.091;-0.131;-0.206;
20200827_191524;0.759;3.649;10.008;-0.025;-0.175;-0.248;
20200827_191524;-1.899;4.441;8.432;-0.011;-0.150;0.051;
20200827_191525;-0.108;5.368;9.996;0.012;-0.110;0.142;
20200827_191525;-0.572;4.446;3.982;0.114;-0.052;0.197;
20200827_191525;-0.057;3.802;9.232;-0.074;-0.008;0.185;
20200827_191525;-0.022;3.730;7.946;-0.002;-0.009;0.045;
20200827_191525;1.188;4.484;12.589;-0.035;-0.053;-0.069;
20200827_191525;0.201;4.762;5.107;0.115;-0.015;-0.035;
20200827_191525;-0.055;4.736;8.262;0.060;-0.043;-0.053;
20200827_191525;-0.113;5.538;6.359;0.040;-0.066;0.003;
20200827_191525;1.307;3.998;10.391;0.005;-0.064;0.013;
20200827_191525;0.393;3.701;9.960;0.016;-0.010;-0.040;
20200827_191526;0.505;5.061;6.048;0.051;-0.155;-0.126;
20200827_191526;1.324;3.816;10.769;-0.030;-0.045;0.216;
20200827_191526;0.438;4.465;9.354;-0.016;0.044;0.454;
20200827_191526;0.330;5.258;4.851;0.112;0.026;0.093;
20200827_191526;-0.759;5.708;7.128;0.048;0.053;0.093;
20200827_191526;0.132;5.420;9.570;0.061;0.161;0.026;
20200827_191526;-0.366;5.514;7.439;-0.027;0.074;-0.095;
20200827_191526;-0.134;4.788;7.681;0.032;0.125;0.061;
20200827_191526;0.977;4.865;10.563;0.003;0.139;-0.116;
20200827_191527;0.864;4.070;8.191;-0.008;0.092;-0.349;
20200827_191527;-0.330;2.416;9.270;-0.036;0.023;-0.317;
20200827_191527;-0.345;4.372;5.885;0.051;0.015;-0.177;
20200827_191527;-0.974;4.401;11.052;-0.036;-0.012;-0.020;
20200827_191527;-0.867;3.189;5.804;0.037;0.037;0.069;
20200827_191527;-0.014;5.001;10.961;-0.063;0.034;-0.094;
20200827_191527;0.848;2.758;5.856;0.033;-0.048;-0.227;
20200827_191527;-0.915;4.942;11.193;0.073;-0.062;-0.155;
20200827_191527;0.529;4.561;10.247;-0.041;-0.071;-0.127;
20200827_191527;0.948;3.292;7.317;0.043;-0.098;-0.279;
20200827_191528;0.776;4.863;8.966;-0.035;-0.101;-0.268;
20200827_191528;-1.202;2.796;5.442;0.070;-0.129;-0.155;
20200827_191528;0.005;4.453;10.381;-0.025;-0.084;0.013;
20200827_191528;-2.682;5.923;10.053;-0.054;-0.071;-0.248;
20200827_191528;-0.060;4.405;10.087;-0.038;-0.121;0.032;
20200827_191528;-0.184;-1.132;11.959;0.135;-0.127;0.189;
20200827_191528;0.218;1.719;8.076;-0.060;-0.159;-0.074;
20200827_191528;-0.249;10.075;7.750;0.025;-0.180;0.059;
20200827_191528;0.180;8.392;11.636;0.077;-0.097;0.300;
20200827_191529;0.232;3.515;5.133;0.108;-0.019;0.282;
20200827_191529;1.250;3.723;9.495;0.052;0.002;0.130;
