Timestamp;Accel_x;Accel_y;Accel_z;Gyro_x;Gyro_y;Gyro_z;
20200831_170856;-0.254;4.693;8.356;0.093;-0.062;-0.021;
20200831_170856;-0.239;4.554;8.653;-0.001;-0.020;-0.016;
20200831_170856;-0.242;4.580;8.612;0.001;-0.021;-0.019;
20200831_170856;-0.115;4.549;8.643;-0.000;-0.014;0.001;
20200831_170857;-0.079;4.551;8.665;-0.000;-0.005;-0.001;
20200831_170857;-0.062;4.535;8.641;-0.000;-0.012;-0.047;
20200831_170857;-0.101;4.592;8.624;0.003;0.001;-0.045;
20200831_170857;-0.136;4.592;8.600;-0.000;0.017;-0.017;
20200831_170857;-0.287;4.501;8.660;0.002;0.019;-0.028;
20200831_170857;-0.330;4.547;8.619;0.004;0.005;-0.054;
20200831_170857;-0.309;4.678;8.590;0.002;0.008;-0.014;
20200831_170857;-0.299;4.563;8.612;-0.003;0.027;0.045;
20200831_170857;-0.388;4.530;8.648;-0.000;-0.004;-0.022;
20200831_170857;-0.443;4.527;8.624;0.003;-0.020;-0.063;
20200831_170858;-0.462;4.578;8.610;0.002;-0.047;-0.093;
20200831_170858;-0.247;4.650;8.468;0.002;-0.051;-0.077;
20200831_170858;-0.273;4.750;8.557;0.011;-0.098;-0.248;
20200831_170858;-0.251;4.767;8.454;0.011;-0.086;-0.216;
20200831_170858;-0.338;4.784;8.574;0.002;-0.030;-0.055;
20200831_170858;-0.512;4.719;8.514;0.002;-0.016;-0.083;
20200831_170858;-0.247;4.671;8.677;-0.002;-0.031;-0.073;
20200831_170858;-0.953;4.633;8.866;0.011;-0.068;-0.185;
20200831_170858;-0.716;4.678;8.490;0.015;-0.077;-0.191;
20200831_170859;-0.283;4.707;8.547;0.006;-0.052;-0.057;
20200831_170859;-0.136;4.882;8.413;0.005;-0.050;-0.075;
20200831_170859;-0.266;4.872;8.437;0.001;-0.040;-0.085;
20200831_170859;-0.283;5.059;8.315;0.002;-0.025;-0.080;
20200831_170859;-0.273;4.827;8.361;-0.012;-0.019;-0.073;
20200831_170859;-0.488;4.858;8.519;0.007;-0.017;-0.118;
20200831_170859;-0.625;4.863;8.092;0.005;-0.037;-0.160;
20200831_170859;-0.910;5.499;8.873;-0.004;-0.020;0.034;
20200831_170859;-1.214;4.717;8.315;-0.047;0.030;0.274;
20200831_170859;-1.149;5.042;7.793;-0.044;0.100;0.655;
20200831_170900;-0.532;4.791;8.715;-0.034;0.179;0.927;
20200831_170900;-0.043;4.302;8.796;-0.056;0.199;0.980;
20200831_170900;0.472;4.015;9.057;-0.041;0.201;0.925;
20200831_170900;1.070;3.675;8.650;-0.019;0.174;0.751;
20200831_170900;1.434;4.554;9.342;0.016;0.146;0.416;
20200831_170900;0.931;4.413;9.014;0.028;0.078;0.172;
20200831_170900;0.788;4.432;7.937;0.009;0.008;-0.071;
20200831_170900;0.505;4.221;10.137;-0.026;0.014;-0.029;
20200831_170900;1.039;3.299;8.815;-0.030;0.059;0.182;
20200831_170901;1.233;4.367;9.124;0.035;0.088;0.123;
20200831_170901;1.290;3.531;9.309;-0.001;0.068;0.058;
20200831_170901;0.220;3.977;9.313;0.028;0.142;0.154;
20200831_170901;-0.215;4.276;8.902;0.052;0.119;0.058;
20200831_170901;0.931;4.290;8.789;0.023;0.055;0.004;
20200831_170901;0.737;4.257;8.629;0.034;0.144;0.202;
20200831_170901;0.579;4.092;8.748;0.034;0.196;0.254;
20200831_170901;0.936;4.276;8.461;0.062;0.190;0.150;
20200831_170901;0.335;3.970;8.746;0.073;0.262;0.214;
20200831_170901;-0.266;4.513;9.000;0.069;0.271;0.230;
20200831_170902;-1.039;2.315;8.696;-0.034;0.208;0.193;
20200831_170902;-0.563;3.479;9.079;0.048;0.014;-0.098;
20200831_170902;-0.031;5.997;8.164;0.033;0.050;0.073;
20200831_170902;0.220;4.140;9.031;-0.024;0.132;0.512;
20200831_170902;0.093;4.202;8.526;0.035;0.035;0.128;
20200831_170902;-0.436;5.770;8.143;-0.000;0.013;0.069;
20200831_170902;0.261;3.831;8.918;-0.048;0.030;0.363;
20200831_170902;0.984;4.899;8.600;0.013;0.064;0.290;
20200831_170902;0.290;4.460;8.552;0.020;0.131;0.386;
20200831_170903;0.208;4.839;8.442;0.041;0.108;0.312;
20200831_170903;0.522;5.124;8.365;-0.007;0.095;0.458;
20200831_170903;0.939;4.712;8.423;-0.036;-0.015;0.159;
20200831_170903;0.687;4.611;8.523;-0.036;-0.053;-0.091;
20200831_170903;0.984;4.257;8.691;-0.025;-0.015;0.069;
20200831_170903;1.195;4.590;8.557;-0.007;0.016;0.094;
20200831_170903;0.764;4.413;8.610;0.011;0.015;0.024;
20200831_170903;1.171;4.762;8.504;0.011;0.017;0.042;
20200831_170903;0.967;4.496;8.638;0.009;-0.023;-0.167;
20200831_170904;0.603;4.822;8.487;0.003;-0.051;-0.266;
20200831_170904;0.709;4.559;8.638;0.004;-0.041;-0.216;
20200831_170904;0.821;4.741;8.473;0.011;-0.066;-0.352;
20200831_170904;0.788;4.506;8.626;0.018;-0.088;-0.521;
20200831_170904;0.275;4.695;8.526;0.036;-0.130;-0.754;
20200831_170904;-0.687;4.798;8.547;0.025;-0.165;-0.890;
20200831_170904;-1.300;4.736;8.578;0.017;-0.159;-0.742;
20200831_170904;-1.252;5.045;8.413;0.004;-0.127;-0.433;
20200831_170904;-1.051;4.738;8.538;-0.017;-0.123;-0.236;
20200831_170904;-0.678;4.585;8.576;-0.016;-0.105;-0.103;
20200831_170905;-0.424;4.707;8.526;-0.017;-0.083;-0.015;
20200831_170905;-0.393;4.602;8.581;-0.018;-0.085;-0.030;
20200831_170905;-0.352;4.599;8.581;-0.017;-0.056;0.044;
20200831_170905;-0.014;4.513;8.581;-0.012;-0.071;-0.065;
20200831_170905;-0.132;4.580;8.626;-0.002;-0.049;-0.096;
20200831_170905;-0.249;4.604;8.645;0.003;0.060;0.163;
20200831_170905;0.314;4.956;8.502;0.011;0.039;0.076;
20200831_170905;-0.017;4.341;8.748;-0.005;0.046;0.097;
20200831_170905;-0.309;4.556;8.674;0.017;0.010;-0.102;
20200831_170906;-0.421;4.937;8.449;0.004;0.002;-0.103;
20200831_170906;-0.395;4.736;8.552;0.006;0.001;-0.050;
20200831_170906;-0.488;4.693;8.566;-0.003;-0.031;-0.021;
20200831_170906;-0.515;4.875;8.274;-0.008;0.010;0.129;
20200831_170906;-0.302;4.386;8.574;-0.016;-0.046;-0.038;
20200831_170906;-0.383;4.776;8.622;-0.005;-0.073;-0.132;
20200831_170906;-0.321;4.664;8.605;-0.002;-0.072;-0.146;
20200831_170906;0.603;4.484;8.442;-0.004;-0.077;-0.131;
20200831_170906;-0.479;4.597;8.459;0.014;-0.084;-0.335;
20200831_170907;-1.137;4.673;8.569;0.001;0.005;-0.039;
20200831_170907;-0.405;4.709;8.425;-0.001;-0.068;-0.118;
20200831_170907;-0.419;4.731;8.540;0.008;-0.093;-0.230;
20200831_170907;-0.733;4.266;7.896;0.004;-0.049;-0.202;
20200831_170907;0.713;4.882;8.679;-0.009;-0.130;-0.226;
20200831_170907;-0.752;4.779;8.135;0.019;-0.098;-0.211;
20200831_170907;-0.838;5.425;8.502;0.011;-0.051;-0.052;
20200831_170907;-0.828;1.365;9.199;-0.018;-0.134;-0.173;
20200831_170907;-1.678;4.460;9.287;-0.000;-0.143;-0.106;
20200831_170907;-1.238;4.846;8.370;0.029;-0.232;-0.137;
20200831_170908;0.376;4.073;7.824;-0.010;-0.145;0.220;
20200831_170908;1.949;4.453;8.495;-0.013;-0.080;0.135;
20200831_170908;0.974;4.571;8.569;0.003;0.025;-0.096;
20200831_170908;0.050;4.439;8.655;-0.008;0.103;-0.057;
20200831_170908;-1.173;3.991;8.887;-0.005;0.050;-0.071;
20200831_170908;-0.476;3.814;9.057;0.003;0.015;0.034;
20200831_170908;0.148;4.132;8.708;0.029;-0.002;0.015;
20200831_170908;-0.503;4.987;8.475;0.086;-0.072;-0.199;
20200831_170908;-0.220;5.071;8.483;0.024;-0.003;0.107;
20200831_170909;0.146;4.444;8.684;-0.016;-0.033;0.062;
20200831_170909;0.019;4.551;8.643;0.005;-0.043;-0.035;
20200831_170909;0.180;4.539;8.684;0.001;0.001;0.113;
20200831_170909;0.050;4.858;8.473;0.002;-0.015;0.035;
20200831_170909;-0.120;4.966;8.583;-0.020;-0.090;-0.160;
20200831_170909;0.050;3.261;9.052;-0.010;0.043;0.194;
20200831_170909;-0.280;4.324;8.844;0.068;-0.048;-0.033;
20200831_170909;-0.577;6.088;8.004;0.006;-0.047;0.017;
20200831_170909;0.802;4.764;8.258;-0.062;-0.031;0.143;
20200831_170909;-0.079;3.831;8.921;-0.024;-0.037;-0.031;
20200831_170910;0.476;4.092;8.830;-0.013;-0.052;0.068;
20200831_170910;0.553;4.101;8.815;0.054;-0.033;0.088;
20200831_170910;-0.242;5.260;8.356;0.045;-0.033;-0.022;
20200831_170910;0.790;4.760;8.708;-0.073;-0.047;0.078;
20200831_170910;0.673;3.347;8.902;-0.030;0.000;0.084;
20200831_170910;0.383;3.639;8.976;0.018;-0.077;-0.083;
20200831_170910;1.544;4.908;8.478;0.082;-0.062;0.017;
20200831_170910;0.414;5.923;8.203;0.013;-0.007;0.208;
20200831_170910;0.000;4.879;8.315;-0.061;-0.025;0.119;
20200831_170911;1.599;3.692;9.033;-0.098;-0.081;0.127;
20200831_170911;1.085;3.735;9.029;0.011;-0.039;0.182;
20200831_170911;1.561;4.683;8.705;0.050;0.094;0.508;
20200831_170911;1.144;4.851;8.466;-0.002;0.061;0.346;
20200831_170911;1.226;4.264;8.674;-0.019;-0.040;0.160;
20200831_170911;2.921;4.681;8.598;-0.031;-0.025;0.094;
20200831_170911;1.877;3.716;8.557;-0.083;0.019;-0.045;
20200831_170911;0.951;3.462;8.914;0.017;-0.029;-0.284;
20200831_170911;0.680;4.448;8.593;0.044;-0.003;-0.028;
20200831_170912;1.369;4.362;8.531;0.038;0.030;0.166;
20200831_170912;1.525;4.922;8.466;0.014;0.066;0.232;
20200831_170912;1.901;4.554;8.645;-0.026;0.021;0.091;
20200831_170912;1.650;4.240;8.710;-0.057;0.013;-0.071;
20200831_170912;1.008;3.836;8.756;-0.012;0.009;-0.225;
20200831_170912;0.582;3.994;8.727;0.013;-0.029;-0.136;
20200831_170912;1.132;4.092;8.823;0.035;0.015;0.179;
20200831_170912;1.889;4.817;8.564;0.040;0.051;0.276;
20200831_170912;1.621;4.353;8.607;-0.016;0.058;0.257;
20200831_170912;2.030;4.245;8.674;-0.005;0.025;0.109;
20200831_170913;1.803;4.834;8.492;-0.021;-0.015;-0.128;
20200831_170913;0.955;3.491;8.851;-0.058;0.012;-0.153;
20200831_170913;0.855;3.886;8.935;0.004;-0.069;-0.209;
20200831_170913;0.912;4.424;8.631;0.013;-0.044;-0.006;
20200831_170913;1.609;3.622;8.856;0.033;-0.001;0.253;
20200831_170913;2.059;5.303;8.327;0.030;0.015;0.210;
20200831_170913;1.961;4.164;8.660;-0.015;0.019;0.129;
20200831_170913;2.198;4.221;8.607;-0.001;-0.002;-0.087;
20200831_170913;1.865;4.520;8.600;-0.025;-0.023;-0.213;
20200831_170914;1.343;3.560;8.823;-0.047;0.045;-0.039;
20200831_170914;1.164;3.776;8.832;0.021;-0.001;-0.173;
20200831_170914;1.116;3.934;8.777;0.049;0.032;0.027;
20200831_170914;1.726;5.090;8.356;0.044;0.096;0.233;
20200831_170914;2.145;4.183;8.693;0.003;0.081;0.099;
20200831_170914;1.652;4.401;8.648;0.019;0.058;-0.148;
20200831_170914;1.030;4.314;8.653;0.014;0.063;-0.240;
20200831_170914;1.025;4.166;8.748;0.006;0.090;-0.131;
20200831_170914;1.235;4.329;8.686;0.019;0.132;-0.026;
20200831_170914;0.953;4.233;8.686;0.032;0.155;-0.070;
20200831_170915;0.093;4.609;8.648;0.037;0.122;-0.177;
20200831_170915;-0.074;4.626;8.605;0.017;0.071;-0.197;
20200831_170915;-0.117;4.470;8.650;0.012;0.077;-0.143;
20200831_170915;-0.237;4.597;8.643;0.012;0.065;-0.103;
20200831_170915;-0.328;4.638;8.607;-0.001;0.041;-0.075;
20200831_170915;-0.488;4.580;8.631;-0.016;0.028;-0.020;
20200831_170915;-0.529;4.314;8.684;-0.020;0.003;-0.009;
20200831_170915;-0.050;4.525;8.610;-0.005;-0.020;-0.091;
20200831_170915;-0.385;4.556;8.648;-0.019;0.002;-0.111;
20200831_170916;-0.213;3.752;8.964;-0.017;0.041;0.096;
20200831_170916;-0.577;4.171;8.811;0.051;0.082;0.202;
20200831_170916;0.397;5.262;8.492;0.041;-0.001;-0.053;
20200831_170916;-0.426;4.982;8.497;-0.014;0.038;0.062;
20200831_170916;0.500;4.058;8.660;-0.019;0.069;0.116;
20200831_170916;0.069;4.338;8.662;0.034;0.024;-0.123;
20200831_170916;-0.883;5.102;8.387;0.025;0.074;-0.007;
20200831_170916;-0.795;4.676;8.507;-0.022;0.003;-0.081;
20200831_170916;-0.457;4.020;8.894;-0.018;-0.012;-0.091;
20200831_170917;-0.498;4.278;8.727;0.009;0.021;0.030;
20200831_170917;-0.347;4.492;8.638;0.030;0.048;0.086;
20200831_170917;-0.376;5.040;8.425;0.008;0.052;0.043;
20200831_170917;-1.094;4.542;8.701;-0.011;-0.015;-0.108;
20200831_170917;-0.373;4.477;8.693;-0.013;-0.060;-0.147;
20200831_170917;-0.819;4.494;8.617;-0.008;0.004;0.000;
20200831_170917;-0.539;4.372;8.729;-0.001;0.025;0.109;
20200831_170917;-0.711;4.748;8.490;0.005;-0.028;-0.072;
20200831_170917;-0.773;4.453;8.660;-0.013;-0.027;-0.006;
20200831_170917;-0.287;4.353;8.744;-0.004;-0.024;0.044;
20200831_170918;-0.472;4.594;8.619;0.003;-0.027;0.048;
20200831_170918;-0.330;4.511;8.653;-0.002;-0.017;0.048;
20200831_170918;-0.426;4.492;8.650;-0.000;-0.024;0.014;
20200831_170918;-0.510;4.597;8.607;-0.002;-0.023;0.026;
20200831_170918;-0.405;4.480;8.667;-0.005;-0.052;-0.024;
20200831_170918;-0.601;4.532;8.633;-0.009;-0.076;-0.077;
20200831_170918;-0.433;4.451;8.655;-0.008;-0.077;-0.019;
20200831_170918;0.045;4.468;8.693;-0.010;-0.084;-0.034;
20200831_170918;-0.129;4.460;8.657;-0.007;-0.081;-0.101;
20200831_170919;-0.141;4.417;8.681;-0.007;-0.060;-0.009;
20200831_170919;0.079;4.355;8.727;-0.001;-0.073;-0.064;
20200831_170919;0.117;4.549;8.681;0.008;-0.071;-0.111;
20200831_170919;-0.163;4.561;8.624;0.002;-0.056;-0.099;
20200831_170919;-0.024;4.343;8.662;-0.005;-0.046;-0.054;
20200831_170919;0.057;4.424;8.746;-0.002;-0.054;-0.086;
20200831_170919;0.034;4.463;8.691;-0.000;-0.037;-0.025;
20200831_170919;-0.060;4.542;8.674;-0.007;-0.027;0.017;
20200831_170919;0.024;4.264;8.763;-0.007;-0.037;0.018;
20200831_170919;-0.129;4.326;8.727;0.014;-0.031;-0.001;
20200831_170920;0.388;4.468;8.624;0.019;-0.024;0.007;
20200831_170920;0.053;4.525;8.669;0.017;-0.043;-0.058;
20200831_170920;-0.239;4.621;8.619;0.011;-0.066;0.047;
20200831_170920;0.821;4.872;8.622;-0.001;-0.038;0.168;
20200831_170920;0.730;4.633;8.636;-0.029;-0.044;0.077;
20200831_170920;1.599;4.113;8.708;-0.050;-0.043;0.068;
20200831_170920;0.429;4.240;8.768;0.006;0.080;0.052;
20200831_170920;0.807;4.551;8.674;0.025;0.078;-0.006;
20200831_170920;0.419;4.477;8.665;0.022;0.136;0.011;
20200831_170921;0.309;4.448;8.674;0.024;0.144;-0.003;
20200831_170921;-0.026;4.796;8.569;0.020;0.122;-0.148;
20200831_170921;-0.060;4.324;8.758;-0.019;0.134;-0.069;
20200831_170921;-0.546;4.233;8.780;0.004;0.116;-0.081;
20200831_170921;-0.256;4.551;8.562;0.015;0.075;-0.096;
20200831_170921;-0.886;4.808;8.485;0.006;0.078;-0.130;
20200831_170921;-0.797;4.525;8.636;-0.028;0.119;0.070;
20200831_170921;-0.694;4.228;8.689;-0.018;0.071;-0.063;
20200831_170921;-1.137;4.211;8.665;0.013;0.119;0.079;
20200831_170921;-0.869;4.331;8.667;0.035;0.118;0.106;
20200831_170922;-1.109;4.980;8.430;0.036;0.062;-0.090;
20200831_170922;-1.202;4.743;8.504;-0.010;0.059;-0.063;
20200831_170922;-1.223;4.032;8.734;-0.019;0.055;-0.042;
20200831_170922;-1.252;4.073;8.696;0.033;0.070;0.033;
20200831_170922;-1.159;5.181;8.358;0.030;0.039;-0.048;
20200831_170922;-1.432;4.537;8.514;-0.017;0.042;0.030;
20200831_170922;-1.326;4.266;8.588;0.003;0.012;-0.042;
20200831_170922;-1.405;4.752;8.464;0.011;0.021;-0.030;
20200831_170922;-1.307;4.506;8.540;-0.005;0.006;-0.057;
20200831_170923;-1.465;4.477;8.526;-0.004;0.008;-0.033;
20200831_170923;-1.568;4.456;8.571;-0.004;0.008;-0.001;
20200831_170923;-1.621;4.499;8.528;-0.000;-0.035;-0.099;
20200831_170923;-1.757;4.496;8.540;-0.001;-0.039;-0.050;
20200831_170923;-1.365;4.451;8.595;-0.005;-0.029;0.080;
20200831_170923;-1.185;4.099;8.648;-0.000;-0.024;0.092;
20200831_170923;-1.192;4.647;8.492;0.005;-0.046;0.003;
20200831_170923;-1.132;4.599;8.502;-0.017;-0.038;0.042;
20200831_170923;-1.068;4.235;8.710;-0.007;-0.047;0.009;
20200831_170923;-1.128;4.508;8.617;0.004;-0.040;0.005;
20200831_170924;-0.972;4.583;8.614;-0.001;-0.028;0.012;
20200831_170924;-0.910;4.499;8.617;-0.007;-0.019;-0.008;
20200831_170924;-1.034;4.410;8.674;-0.005;-0.008;0.014;
20200831_170924;-0.986;4.489;8.610;-0.001;-0.010;-0.023;
20200831_170924;-0.962;4.511;8.588;-0.004;0.001;-0.013;
20200831_170924;-1.061;4.436;8.631;-0.004;0.000;-0.018;
20200831_170924;-0.989;4.374;8.607;-0.003;0.009;0.002;
20200831_170924;-1.032;4.434;8.617;0.005;0.017;-0.013;
20200831_170924;-1.197;4.511;8.626;-0.000;0.014;-0.020;
20200831_170925;-1.065;4.422;8.631;-0.001;0.016;-0.002;
20200831_170925;-1.247;4.441;8.590;0.001;0.014;-0.010;
20200831_170925;-1.183;4.417;8.612;0.001;0.014;0.001;
20200831_170925;-1.195;4.470;8.578;-0.000;0.012;0.012;
20200831_170925;-1.173;4.420;8.617;-0.000;0.018;0.018;
20200831_170925;-1.250;4.468;8.614;0.001;0.011;-0.005;
20200831_170925;-1.221;4.434;8.583;0.001;0.009;0.004;
20200831_170925;-1.264;4.465;8.593;0.001;-0.004;-0.016;
20200831_170925;-1.221;4.432;8.586;-0.001;-0.002;0.002;
20200831_170926;-1.305;4.465;8.602;0.002;-0.010;-0.025;
20200831_170926;-1.271;4.413;8.624;-0.001;-0.010;0.002;
20200831_170926;-1.238;4.403;8.610;0.002;0.005;0.055;
20200831_170926;-1.142;4.506;8.566;0.003;0.004;0.056;
20200831_170926;-1.190;4.501;8.574;-0.001;-0.006;0.021;
20200831_170926;-1.209;4.415;8.588;-0.002;-0.016;-0.006;
20200831_170926;-1.211;4.470;8.595;0.002;-0.015;0.015;
20200831_170926;-1.142;4.475;8.600;-0.000;-0.013;0.040;
20200831_170926;-1.140;4.492;8.576;-0.003;-0.024;0.008;
20200831_170926;-1.106;4.456;8.614;-0.003;-0.031;0.007;
20200831_170927;-1.044;4.463;8.605;-0.002;-0.037;-0.003;
20200831_170927;-1.077;4.492;8.610;-0.003;-0.043;-0.008;
20200831_170927;-1.070;4.477;8.600;-0.005;-0.047;0.003;
20200831_170927;-0.924;4.413;8.643;-0.007;-0.045;0.024;
20200831_170927;-1.051;5.258;8.514;0.038;-0.047;0.040;
20200831_170927;-0.843;4.527;8.485;-0.010;-0.052;0.047;
20200831_170927;-0.879;4.422;8.633;-0.018;-0.062;0.076;
20200831_170927;-0.570;4.506;8.588;-0.000;-0.066;0.092;
20200831_170927;-0.606;4.453;8.720;-0.003;-0.067;0.096;
20200831_170928;-0.350;4.446;8.643;-0.022;-0.068;0.140;
20200831_170928;-0.081;4.453;8.655;-0.015;-0.077;0.127;
20200831_170928;-0.005;4.369;8.739;-0.014;-0.076;0.068;
20200831_170928;0.297;4.403;8.662;-0.012;-0.054;0.107;
20200831_170928;0.328;4.415;8.703;-0.005;-0.041;0.081;
20200831_170928;0.134;4.365;8.739;-0.000;-0.057;-0.036;
20200831_170928;0.022;4.381;8.703;0.001;-0.039;0.023;
20200831_170928;0.371;4.446;8.681;0.006;-0.037;0.065;
20200831_170928;0.294;4.492;8.610;-0.007;-0.039;0.045;
20200831_170929;0.213;4.468;8.667;-0.008;-0.038;0.061;
20200831_170929;0.488;4.310;8.710;-0.011;-0.017;0.163;
20200831_170929;0.788;4.398;8.748;-0.001;0.002;0.202;
20200831_170929;0.778;4.283;8.746;-0.008;0.005;0.142;
20200831_170929;0.766;4.293;8.734;-0.001;-0.014;0.044;
20200831_170929;0.771;4.295;8.739;0.004;-0.020;0.027;
20200831_170929;0.809;4.427;8.648;0.001;-0.012;0.037;
20200831_170929;0.843;4.223;8.691;-0.004;-0.005;0.039;
20200831_170929;0.816;4.530;8.607;0.006;0.008;0.069;
20200831_170929;0.812;4.446;8.674;-0.000;0.019;0.114;
20200831_170930;0.879;4.403;8.655;-0.003;0.028;0.145;
20200831_170930;1.018;4.374;8.657;-0.001;0.049;0.196;
20200831_170930;0.857;5.025;8.581;0.035;0.090;0.248;
20200831_170930;0.931;4.559;8.588;-0.008;0.094;0.343;
20200831_170930;0.965;4.539;8.562;-0.018;0.123;0.465;
20200831_170930;0.965;4.511;8.545;-0.021;0.146;0.550;
20200831_170930;2.018;3.323;9.031;-0.045;0.134;0.570;
20200831_170930;1.791;3.191;9.196;-0.042;0.025;0.106;
20200831_170930;1.693;3.182;9.105;0.016;0.024;-0.032;
20200831_170931;1.875;3.697;8.911;0.038;0.062;-0.028;
20200831_170931;1.202;4.168;8.772;0.063;0.086;-0.077;
20200831_170931;0.824;4.401;8.710;0.047;0.076;-0.066;
20200831_170931;0.735;4.386;8.677;0.031;0.043;-0.080;
20200831_170931;0.716;4.360;8.708;0.018;0.032;-0.024;
20200831_170931;0.797;4.310;8.736;0.002;0.012;0.017;
20200831_170931;0.769;4.274;8.758;-0.007;-0.014;-0.002;
20200831_170931;0.816;4.250;8.751;-0.017;-0.028;0.039;
20200831_170931;0.979;4.245;8.729;-0.022;-0.020;0.107;
20200831_170932;1.166;4.118;8.784;-0.025;-0.007;0.170;
20200831_170932;1.310;4.029;8.803;-0.022;-0.011;0.133;
20200831_170932;1.326;4.010;8.830;-0.017;-0.018;0.081;
20200831_170932;1.310;4.039;8.753;-0.018;-0.031;0.037;
20200831_170932;1.334;4.125;8.775;-0.022;-0.036;0.040;
20200831_170932;1.362;3.991;8.787;-0.030;-0.032;0.078;
20200831_170932;1.516;3.953;8.808;-0.027;-0.031;0.084;
20200831_170932;2.093;3.869;8.818;-0.031;-0.035;0.025;
20200831_170932;1.554;3.704;8.856;-0.009;-0.039;-0.089;
20200831_170932;1.554;4.065;8.734;-0.005;-0.019;-0.010;
20200831_170933;1.688;3.816;8.871;-0.009;-0.011;0.004;
20200831_170933;1.525;4.010;8.796;-0.004;-0.030;-0.072;
20200831_170933;1.554;3.919;8.782;-0.010;-0.016;0.011;
20200831_170933;1.705;3.809;8.842;-0.011;-0.006;0.051;
20200831_170933;1.760;3.879;8.796;-0.007;-0.008;0.021;
20200831_170933;1.686;3.824;8.827;-0.007;-0.015;-0.016;
20200831_170933;1.595;3.941;8.784;-0.003;-0.016;-0.023;
20200831_170933;1.621;3.867;8.820;-0.010;-0.006;0.030;
20200831_170933;1.748;3.807;8.820;-0.005;-0.003;0.048;
20200831_170934;1.901;3.836;8.799;-0.007;-0.002;0.035;
20200831_170934;1.841;3.749;8.818;-0.004;0.000;0.029;
20200831_170934;1.817;3.792;8.827;0.001;-0.002;-0.009;
20200831_170934;1.743;3.852;8.823;0.003;0.002;-0.012;
20200831_170934;1.733;3.807;8.832;0.001;0.002;0.002;
20200831_170934;1.736;3.869;8.863;0.001;0.001;0.001;
20200831_170934;1.755;3.804;8.827;0.001;0.004;0.013;
20200831_170934;1.815;3.790;8.837;0.004;0.008;0.012;
20200831_170934;1.820;3.747;8.854;0.007;0.015;0.015;
20200831_170934;1.793;3.826;8.839;0.013;0.020;0.007;
20200831_170935;1.712;3.874;8.827;0.015;0.024;-0.003;
20200831_170935;1.729;3.838;8.849;0.014;0.030;0.016;
20200831_170935;1.846;3.733;8.851;0.020;0.045;0.034;
20200831_170935;1.695;3.869;8.818;0.031;0.053;0.013;
20200831_170935;1.568;3.891;8.827;0.033;0.047;-0.028;
20200831_170935;1.425;4.013;8.801;0.031;0.019;-0.107;
20200831_170935;1.343;4.128;8.765;0.019;0.025;-0.057;
20200831_170935;1.420;4.008;8.806;0.009;0.031;-0.007;
20200831_170935;1.324;3.948;8.835;0.015;0.031;-0.013;
20200831_170936;1.334;4.085;8.768;0.018;0.022;-0.054;
20200831_170936;1.257;4.058;8.775;0.018;0.026;-0.054;
20200831_170936;1.183;4.120;8.760;0.020;0.024;-0.055;
20200831_170936;1.137;4.142;8.753;0.016;0.024;-0.036;
20200831_170936;1.125;4.156;8.799;0.014;0.015;-0.049;
20200831_170936;1.063;4.199;8.739;0.012;0.008;-0.066;
20200831_170936;1.013;4.154;8.746;0.009;0.009;-0.048;
20200831_170936;0.991;4.245;8.729;0.007;0.013;-0.006;
20200831_170936;1.092;4.166;8.768;0.005;0.014;0.002;
20200831_170936;1.041;4.142;8.803;0.007;0.016;-0.001;
20200831_170937;1.020;4.185;8.789;0.008;0.016;-0.003;
20200831_170937;1.008;4.171;8.780;0.009;0.014;-0.015;
20200831_170937;0.955;4.221;8.780;0.011;0.016;-0.019;
20200831_170937;0.934;4.266;8.765;0.008;0.009;-0.019;
20200831_170937;0.766;4.278;8.753;0.005;0.000;-0.047;
20200831_170937;0.728;4.374;8.679;-0.004;0.003;0.011;
20200831_170937;1.032;4.228;8.727;-0.013;-0.008;0.009;
20200831_170937;1.044;4.111;8.799;-0.014;-0.027;-0.046;
20200831_170937;1.018;4.087;8.789;-0.001;-0.015;-0.041;
20200831_170938;0.838;4.338;8.720;-0.001;-0.015;-0.038;
20200831_170938;0.850;4.211;8.715;-0.008;-0.022;-0.013;
20200831_170938;0.943;4.240;8.782;-0.010;-0.025;0.000;
20200831_170938;0.951;4.238;8.732;-0.013;-0.024;0.020;
20200831_170938;1.097;4.245;8.741;-0.015;-0.019;0.021;
20200831_170938;1.070;4.283;8.724;-0.027;-0.018;0.020;
20200831_170938;1.087;4.178;8.751;-0.037;-0.006;0.032;
20200831_170938;1.065;4.104;8.780;-0.041;-0.007;0.021;
20200831_170938;1.123;3.515;8.981;-0.026;-0.040;-0.015;
20200831_170939;1.180;4.379;8.736;-0.001;-0.050;-0.091;
20200831_170939;1.022;3.795;8.916;-0.022;-0.045;-0.055;
20200831_170939;1.053;4.204;8.729;-0.008;-0.047;-0.059;
20200831_170939;1.197;3.907;8.844;-0.018;-0.034;0.010;
20200831_170939;1.116;4.073;8.818;-0.011;-0.065;-0.103;
20200831_170939;1.281;4.005;8.777;-0.017;-0.078;-0.087;
20200831_170939;2.023;3.733;8.847;0.004;-0.050;-0.084;
20200831_170939;1.702;3.606;8.940;0.066;-0.010;-0.279;
20200831_170939;0.826;4.786;8.600;0.066;-0.010;-0.402;
20200831_170940;0.879;4.436;8.605;0.008;0.083;-0.064;
20200831_170940;0.922;3.737;8.926;-0.017;0.137;0.214;
20200831_170940;1.678;3.407;8.861;0.070;0.140;-0.055;
20200831_170940;0.005;3.936;8.643;0.144;0.178;-0.107;
20200831_170940;-1.860;6.673;7.630;0.069;0.053;-0.216;
20200831_170940;0.074;3.551;9.043;-0.052;-0.130;-0.318;
20200831_170940;0.424;3.589;8.911;0.030;-0.395;-1.060;
20200831_170940;0.089;4.489;8.035;0.035;-0.349;-1.022;
20200831_170940;0.781;6.012;8.540;0.060;-0.224;-0.731;
20200831_170940;-0.668;5.057;8.116;0.025;-0.076;-0.348;
20200831_170941;-0.311;5.059;8.629;0.018;-0.010;-0.279;
20200831_170941;-0.881;4.331;8.842;-0.004;-0.012;-0.211;
20200831_170941;-0.649;4.482;8.301;-0.027;0.012;0.016;
20200831_170941;-1.008;4.693;8.447;-0.000;-0.005;0.072;
20200831_170941;-0.919;4.834;8.595;-0.012;-0.014;0.173;
20200831_170941;-0.481;4.721;8.238;-0.026;0.036;0.375;
20200831_170941;0.129;5.004;8.437;-0.061;0.167;0.679;
20200831_170941;0.010;4.831;8.516;-0.002;0.205;0.586;
20200831_170941;0.622;4.369;8.286;0.005;0.106;0.191;
20200831_170942;-2.296;2.346;8.135;-0.038;0.096;-0.033;
20200831_170942;0.757;4.781;8.890;-0.018;0.077;0.018;
20200831_170942;0.548;4.255;9.184;-0.019;0.103;-0.325;
20200831_170942;0.812;5.011;8.997;0.033;0.216;-0.097;
20200831_170942;-0.979;4.606;7.867;0.008;0.406;0.244;
20200831_170942;-1.262;5.796;8.645;-0.046;0.148;-0.610;
20200831_170942;-1.681;7.132;8.485;0.069;0.059;-0.760;
20200831_170942;-1.116;8.782;5.447;0.038;0.027;-0.792;
20200831_170942;-2.277;5.725;7.939;0.035;-0.095;-0.906;
20200831_170943;-3.299;3.508;7.819;0.115;-0.006;-0.440;
20200831_170943;-3.745;5.868;7.800;0.003;-0.148;-0.563;
20200831_170943;-3.840;5.284;6.306;0.149;-0.322;-0.805;
20200831_170943;-2.160;2.234;9.663;0.167;-0.317;-0.144;
20200831_170943;-2.277;3.596;9.890;0.105;-0.330;-0.298;
20200831_170943;-1.640;1.903;10.250;0.199;-0.350;-0.830;
20200831_170943;-2.440;3.055;9.275;0.438;-0.687;-1.693;
20200831_170943;-4.793;5.555;7.312;0.408;-0.536;-0.338;
20200831_170943;-3.845;5.818;7.214;0.253;-0.191;1.370;
20200831_170943;-3.012;6.764;6.522;0.031;0.158;2.394;
20200831_170944;-0.603;5.298;7.781;-0.080;0.410;2.135;
20200831_170944;0.476;4.750;8.581;-0.097;0.148;0.780;
20200831_170944;2.593;3.967;8.698;-0.058;0.065;0.162;
20200831_170944;-1.678;5.447;7.156;0.025;0.087;0.077;
20200831_170944;-1.281;4.729;8.988;-0.077;-0.038;0.313;
20200831_170944;0.879;4.520;8.715;-0.080;0.125;0.840;
20200831_170944;0.002;5.437;9.802;-0.095;0.199;0.943;
20200831_170944;0.060;4.216;9.244;-0.003;0.156;0.568;
20200831_170944;2.461;4.211;9.304;-0.004;0.157;0.442;
20200831_170945;1.439;4.654;8.593;0.032;0.231;0.228;
20200831_170945;2.291;3.953;9.639;0.103;0.161;-0.280;
20200831_170945;2.258;4.096;8.140;0.068;0.021;-0.700;
20200831_170945;0.922;4.743;9.756;0.089;0.001;-0.838;
20200831_170945;0.172;5.866;8.353;0.097;-0.105;-0.651;
20200831_170945;-1.568;5.669;6.936;0.061;0.039;0.166;
20200831_170945;-0.479;4.671;8.291;-0.010;0.069;0.557;
20200831_170945;-0.079;4.190;8.550;0.046;0.101;0.431;
20200831_170945;0.148;4.082;8.387;0.041;0.167;0.441;
20200831_170945;0.577;4.992;8.930;0.021;0.158;0.226;
20200831_170946;0.833;4.621;5.653;0.060;0.174;0.269;
20200831_170946;1.092;4.348;12.426;0.025;0.221;0.150;
20200831_170946;0.436;5.258;10.659;0.101;0.153;-0.509;
20200831_170946;0.067;5.835;3.445;0.149;-0.040;-0.899;
20200831_170946;0.383;4.041;9.886;0.159;-0.149;-0.961;
20200831_170946;-2.006;5.634;6.211;0.122;-0.095;-0.478;
20200831_170946;-1.025;5.397;7.590;-0.034;-0.264;-0.037;
20200831_170946;-2.564;4.142;8.703;-0.168;-0.034;0.644;
20200831_170946;-0.702;2.830;10.556;-0.117;0.076;0.867;
20200831_170946;0.419;4.171;6.838;-0.061;0.098;0.437;
20200831_170947;1.372;3.883;8.246;0.016;0.066;0.049;
20200831_170947;-0.182;4.436;11.700;-0.050;-0.006;-0.383;
20200831_170947;-0.814;6.041;8.835;0.045;0.008;-0.227;
20200831_170947;-0.919;5.282;4.202;0.058;-0.052;-0.046;
20200831_170947;-0.081;6.057;7.635;0.017;-0.011;0.296;
20200831_170947;-0.632;5.025;10.288;0.044;0.063;0.431;
20200831_170947;-0.081;3.895;4.264;0.132;0.110;0.233;
20200831_170947;0.177;4.843;7.925;-0.128;0.065;0.227;
20200831_170947;0.488;5.887;8.741;0.061;0.158;0.080;
20200831_170948;0.706;3.998;7.630;-0.003;0.065;-0.152;
20200831_170948;-0.256;5.933;9.215;-0.001;0.061;-0.137;
20200831_170948;0.014;4.736;8.990;0.017;0.017;-0.061;
20200831_170948;-0.567;4.357;7.791;0.070;0.077;0.107;
20200831_170948;0.333;4.757;7.530;0.020;0.109;0.085;
20200831_170948;-0.172;4.654;8.047;-0.021;0.080;-0.070;
20200831_170948;0.797;4.233;7.484;-0.024;0.025;-0.229;
20200831_170948;-0.639;4.513;10.393;-0.114;0.012;-0.300;
20200831_170948;0.460;5.112;10.470;-0.025;-0.077;-0.415;
20200831_170949;-1.671;4.671;6.938;0.106;-0.055;-0.374;
20200831_170949;-0.790;4.374;8.353;0.068;-0.105;-0.225;
20200831_170949;-1.652;4.357;9.218;0.015;-0.135;-0.044;
20200831_170949;-1.664;4.611;7.238;0.087;-0.055;0.012;
20200831_170949;-0.474;5.250;7.932;0.032;-0.090;0.052;
20200831_170949;-0.455;3.081;10.980;-0.075;-0.095;0.130;
20200831_170949;-1.077;5.009;10.233;-0.091;0.002;0.166;
20200831_170949;-0.271;5.978;6.390;-0.002;-0.038;0.194;
20200831_170949;-1.499;4.966;7.721;0.198;0.066;0.294;
20200831_170950;-0.996;2.212;10.216;0.018;0.097;0.254;
20200831_170950;-0.309;5.456;8.897;-0.008;0.142;0.104;
20200831_170950;0.335;4.281;8.456;-0.017;0.140;-0.047;
20200831_170950;0.539;4.271;7.333;-0.047;0.131;-0.281;
20200831_170950;0.871;7.645;8.140;0.133;0.033;-0.551;
20200831_170950;0.462;2.184;10.096;0.004;0.000;-0.623;
20200831_170950;-0.606;5.753;7.477;0.165;-0.113;-0.703;
20200831_170950;-0.429;5.045;7.863;0.154;-0.209;-0.642;
20200831_170950;-0.905;3.608;6.100;0.145;-0.206;-0.462;
20200831_170950;-1.317;6.536;10.032;-0.033;-0.290;-0.154;
20200831_170951;-1.264;4.051;8.464;-0.031;-0.272;0.047;
20200831_170951;-1.420;4.180;9.548;0.006;-0.174;0.358;
20200831_170951;-0.929;4.604;9.570;0.005;-0.084;0.498;
20200831_170951;-0.723;4.853;8.751;-0.112;0.053;0.628;
20200831_170951;-0.204;2.701;8.226;-0.029;0.120;0.392;
20200831_170951;1.374;4.233;7.791;-0.082;0.090;-0.014;
20200831_170951;-0.139;4.266;7.479;0.069;0.030;-0.229;
20200831_170951;0.050;4.757;7.089;0.109;-0.033;-0.285;
20200831_170951;0.098;6.464;7.027;0.111;-0.032;-0.045;
20200831_170952;-0.364;3.546;10.216;-0.064;-0.122;-0.004;
20200831_170952;-1.226;4.104;6.845;0.004;-0.037;0.209;
20200831_170952;0.883;10.252;-18.759;0.347;-0.051;0.311;
20200831_170952;-1.341;13.441;5.114;-0.693;-0.239;0.539;
20200831_170952;0.991;4.130;7.374;-0.260;-0.045;-0.057;
20200831_170952;1.188;-4.429;34.477;0.027;-0.038;0.260;
20200831_170952;0.555;4.068;1.666;-0.025;-0.145;0.314;
20200831_170952;-0.924;5.921;9.673;0.147;-0.119;0.453;
20200831_170952;3.567;31.244;-9.335;0.498;0.058;1.070;
20200831_170952;6.850;2.583;-19.822;-0.089;0.340;0.387;
20200831_170953;0.364;12.780;7.958;-2.158;-0.642;-1.208;
20200831_170953;2.550;-0.448;10.520;0.155;0.196;0.135;
20200831_170953;0.826;60.492;-10.039;1.224;0.047;-0.269;
20200831_170953;4.738;-6.515;0.108;-1.516;-0.232;-0.656;
20200831_170953;-2.464;6.412;8.406;-0.070;0.065;0.328;
20200831_170953;-0.984;3.180;7.360;0.001;0.095;0.716;
20200831_170953;-0.991;9.012;10.628;-0.156;0.140;0.650;
20200831_170953;-0.098;4.702;7.800;0.072;0.244;0.783;
20200831_170953;-0.304;5.708;8.626;0.070;0.249;0.682;
20200831_170954;-1.765;0.486;10.372;0.046;0.411;0.571;
20200831_170954;-1.034;6.591;6.991;0.093;0.313;0.555;
20200831_170954;1.470;3.874;7.547;0.102;0.296;0.300;
20200831_170954;1.279;5.394;8.873;0.068;0.351;0.258;
20200831_170954;0.946;3.747;7.559;0.110;0.346;0.026;
20200831_170954;0.814;4.561;8.040;0.076;0.244;-0.252;
20200831_170954;-0.601;5.844;7.149;0.090;0.189;-0.029;
20200831_170954;0.055;4.219;9.270;0.019;0.200;0.052;
20200831_170954;0.445;4.867;8.217;0.024;0.128;-0.038;
20200831_170954;0.824;4.887;7.331;-0.001;0.059;-0.168;
20200831_170955;-1.197;4.142;12.780;0.071;0.037;-0.180;
20200831_170955;-0.737;4.106;9.797;-0.053;0.038;0.025;
20200831_170955;-0.584;4.712;8.871;-0.013;0.071;0.241;
20200831_170955;0.752;4.446;9.232;-0.028;0.078;0.100;
20200831_170955;0.625;4.685;8.442;0.027;0.061;0.010;
20200831_170955;-0.967;4.274;9.278;0.004;0.104;0.100;
20200831_170955;1.288;5.152;6.826;-0.050;0.028;0.014;
20200831_170955;-0.611;5.025;8.693;0.013;0.119;0.023;
20200831_170955;0.263;4.973;9.809;-0.035;0.110;-0.071;
20200831_170956;-0.268;5.650;8.116;0.012;0.050;-0.210;
20200831_170956;-0.697;3.572;9.701;-0.016;0.083;-0.034;
20200831_170956;0.208;4.372;8.040;-0.028;0.086;-0.037;
20200831_170956;0.227;4.760;9.606;0.070;0.125;-0.153;
20200831_170956;-0.120;4.477;8.760;0.064;0.087;-0.376;
20200831_170956;0.318;4.911;8.234;0.054;0.006;-0.633;
20200831_170956;-1.039;4.520;7.784;0.027;-0.079;-0.668;
20200831_170956;-0.201;5.373;8.559;0.064;-0.197;-0.531;
20200831_170956;-0.903;4.633;10.355;0.018;-0.242;-0.438;
20200831_170957;-0.400;5.851;6.924;0.105;-0.297;-0.338;
20200831_170957;-1.465;4.805;9.510;0.086;-0.271;-0.169;
20200831_170957;-0.766;5.155;7.906;0.048;-0.285;0.144;
20200831_170957;-0.603;4.731;8.260;-0.003;-0.186;0.233;
20200831_170957;-0.105;4.338;8.945;-0.016;-0.127;0.216;
20200831_170957;-0.005;4.824;9.840;0.006;-0.035;0.151;
20200831_170957;-0.366;5.102;9.859;-0.003;-0.004;0.106;
20200831_170957;-0.237;4.477;8.928;0.029;-0.012;-0.049;
20200831_170957;-0.110;5.092;7.973;0.048;0.001;-0.058;
20200831_170957;-0.316;4.848;9.115;-0.007;0.009;-0.009;
20200831_170958;0.323;4.058;8.648;0.020;-0.033;-0.180;
20200831_170958;-1.027;4.638;8.835;-0.011;-0.071;-0.124;
20200831_170958;0.469;4.525;7.429;-0.002;-0.094;0.148;
20200831_170958;-0.651;5.643;7.642;0.019;-0.057;0.089;
20200831_170958;0.146;4.233;8.080;0.007;-0.032;0.046;
20200831_170958;-0.402;6.021;8.140;-0.004;-0.053;0.062;
20200831_170958;-0.271;5.052;8.523;-0.022;-0.102;0.028;
20200831_170958;-0.512;4.769;9.079;-0.024;-0.034;0.162;
20200831_170958;-0.079;5.073;8.301;0.012;0.000;0.155;
20200831_170959;-0.213;4.958;7.549;-0.003;0.030;0.208;
20200831_170959;-0.855;5.488;8.231;0.006;0.061;0.219;
20200831_170959;0.067;5.097;8.212;-0.010;0.050;0.253;
20200831_170959;0.594;4.781;7.975;0.044;0.114;0.165;
20200831_170959;-0.625;4.286;8.435;-0.001;0.166;0.106;
20200831_170959;0.666;5.375;9.543;0.054;0.083;0.048;
20200831_170959;0.347;4.647;8.413;0.063;0.146;0.024;
20200831_170959;0.192;5.188;9.510;0.019;0.110;-0.068;
20200831_170959;-0.314;4.666;9.469;0.046;0.108;-0.249;
20200831_171000;-0.381;4.556;8.353;0.027;0.009;-0.315;
20200831_171000;0.278;4.839;9.108;0.025;-0.088;-0.316;
20200831_171000;-0.960;3.950;8.868;-0.011;-0.092;-0.041;
20200831_171000;-1.269;5.071;8.916;-0.040;-0.055;0.244;
20200831_171000;-0.661;4.872;8.346;-0.007;0.029;0.379;
20200831_171000;0.855;4.374;8.095;-0.011;0.074;0.180;
20200831_171000;0.644;4.990;8.140;0.029;0.079;-0.166;
20200831_171000;-0.091;3.785;8.715;-0.017;0.051;-0.268;
20200831_171000;-0.833;5.497;9.361;0.011;-0.039;-0.210;
20200831_171000;-0.876;4.891;7.606;0.032;0.043;0.116;
20200831_171001;-0.235;4.764;7.705;0.028;0.012;-0.013;
20200831_171001;-0.055;4.096;9.541;-0.046;0.016;-0.049;
20200831_171001;-0.141;4.310;7.762;0.047;0.052;-0.012;
20200831_171001;-0.500;5.076;10.065;0.001;0.021;-0.101;
20200831_171001;0.977;4.199;8.169;0.037;0.002;-0.458;
20200831_171001;-0.223;4.439;10.063;0.060;-0.123;-0.641;
20200831_171001;-0.955;3.742;9.910;0.076;-0.193;-0.355;
20200831_171001;-0.706;4.501;9.357;0.051;-0.244;-0.105;
20200831_171001;-1.961;4.503;8.131;-0.002;-0.152;0.383;
20200831_171002;-0.927;4.482;8.279;-0.013;-0.083;0.542;
20200831_171002;0.014;4.391;8.969;-0.045;0.044;0.435;
20200831_171002;0.172;4.544;9.426;-0.021;0.113;0.102;
20200831_171002;-0.168;4.635;9.069;0.024;0.117;-0.159;
20200831_171002;0.000;4.192;9.143;0.053;0.093;-0.298;
20200831_171002;-0.091;4.307;8.708;-0.009;-0.039;-0.391;
20200831_171002;-0.419;4.635;8.277;0.027;-0.066;-0.302;
20200831_171002;-0.405;4.623;8.574;0.002;-0.116;-0.152;
20200831_171002;-0.105;4.001;7.762;-0.009;-0.145;-0.049;
20200831_171003;-0.831;5.052;8.672;-0.000;-0.115;0.057;
20200831_171003;-0.603;5.289;7.096;0.015;-0.079;0.173;
20200831_171003;-0.608;4.391;7.843;-0.008;-0.036;0.221;
20200831_171003;-0.323;4.372;9.428;0.007;0.005;0.197;
20200831_171003;-0.297;3.749;9.835;-0.074;-0.001;0.102;
20200831_171003;-0.354;4.458;7.915;-0.002;0.054;0.053;
20200831_171003;-0.213;5.741;9.206;0.018;0.041;0.043;
20200831_171003;0.268;4.149;8.059;0.002;0.038;0.053;
20200831_171003;-0.290;4.475;9.294;-0.004;0.037;0.005;
20200831_171004;-0.086;4.168;8.691;0.015;0.036;-0.037;
20200831_171004;-0.017;5.380;8.013;0.025;0.024;-0.049;
20200831_171004;-0.172;4.427;8.212;0.003;0.009;-0.087;
20200831_171004;-0.101;3.905;10.539;-0.061;-0.028;-0.082;
20200831_171004;-0.187;4.056;8.964;0.003;-0.039;-0.098;
20200831_171004;-0.848;4.585;8.657;-0.012;-0.048;-0.054;
20200831_171004;-0.280;3.677;9.855;-0.066;-0.057;0.044;
20200831_171004;-0.934;5.265;8.066;-0.043;0.011;0.167;
20200831_171004;-0.891;4.386;7.427;-0.009;-0.022;0.154;
20200831_171004;0.917;4.087;7.803;0.020;-0.052;0.015;
20200831_171005;-0.057;4.805;8.861;-0.029;-0.041;-0.179;
20200831_171005;-0.637;4.932;6.594;0.030;-0.065;-0.044;
20200831_171005;0.208;4.470;8.868;-0.049;-0.098;0.176;
20200831_171005;-1.063;4.082;9.529;-0.014;0.031;0.376;
20200831_171005;-0.283;5.262;9.021;0.016;0.012;0.285;
20200831_171005;0.175;4.808;8.569;0.025;0.043;0.148;
20200831_171005;0.417;4.527;7.499;0.045;0.055;0.172;
20200831_171005;-0.261;5.988;8.466;-0.004;0.142;0.351;
20200831_171005;0.596;4.978;7.403;-0.007;0.142;0.205;
20200831_171006;0.898;4.729;9.565;0.019;0.153;0.065;
20200831_171006;-0.194;5.047;9.737;0.011;0.234;0.015;
20200831_171006;-1.702;4.389;9.052;-0.001;0.140;-0.142;
20200831_171006;1.822;4.156;8.624;0.036;0.090;-0.229;
20200831_171006;-0.725;4.903;8.962;0.081;0.048;-0.492;
20200831_171006;-0.761;4.307;8.624;0.032;-0.093;-0.338;
20200831_171006;0.000;4.884;9.196;-0.034;-0.166;-0.057;
20200831_171006;0.175;6.144;8.942;0.032;-0.035;0.035;
20200831_171006;0.601;4.611;7.851;-0.003;-0.025;0.057;
20200831_171006;-0.512;4.863;8.068;0.039;-0.001;-0.116;
20200831_171007;-0.452;4.831;8.188;-0.038;-0.020;-0.001;
20200831_171007;0.017;4.240;8.782;-0.000;0.000;0.039;
20200831_171007;0.153;4.858;9.014;0.051;-0.021;-0.170;
20200831_171007;-0.395;4.891;7.053;0.045;-0.070;-0.126;
20200831_171007;-1.360;4.729;9.033;-0.014;-0.093;0.080;
20200831_171007;-0.510;4.496;8.808;-0.004;-0.063;0.167;
20200831_171007;-0.814;5.001;8.009;0.006;0.001;0.077;
20200831_171007;-0.069;4.707;8.351;0.023;-0.050;0.080;
20200831_171007;0.991;5.787;9.081;-0.014;-0.038;-0.070;
20200831_171008;1.516;4.705;8.349;0.005;-0.093;-0.338;
20200831_171008;-2.143;4.685;7.463;0.014;-0.126;-0.095;
20200831_171008;-0.929;4.836;5.495;0.018;-0.117;0.462;
20200831_171008;-0.603;4.556;9.694;0.088;0.022;0.456;
20200831_171008;-0.266;5.030;8.466;-0.017;0.114;0.526;
20200831_171008;-0.002;4.044;7.989;0.028;0.192;0.407;
20200831_171008;0.800;4.820;7.829;0.039;0.257;0.117;
20200831_171008;0.656;4.693;8.327;0.046;0.290;-0.179;
20200831_171008;0.776;4.630;7.805;0.040;0.114;-0.621;
20200831_171009;-0.340;5.389;8.540;0.030;-0.019;-0.633;
20200831_171009;-1.413;5.933;7.702;-0.009;-0.118;-0.289;
20200831_171009;-1.456;5.329;8.648;0.039;-0.147;0.053;
20200831_171009;-0.816;4.499;8.121;0.029;-0.139;0.181;
20200831_171009;-0.936;4.290;8.351;-0.014;-0.054;0.339;
20200831_171009;-0.213;4.159;8.468;-0.017;-0.032;0.212;
20200831_171009;0.299;5.399;9.436;0.008;0.083;0.142;
20200831_171009;0.764;3.986;8.325;-0.074;0.090;0.030;
20200831_171009;0.194;6.397;8.296;0.025;0.102;-0.181;
20200831_171010;0.251;5.456;8.236;0.051;0.005;-0.242;
20200831_171010;-0.802;4.039;8.025;0.016;0.059;-0.075;
20200831_171010;-1.128;3.917;8.780;-0.009;0.057;-0.031;
20200831_171010;-0.153;5.540;8.837;0.015;-0.017;-0.150;
20200831_171010;-0.153;5.291;8.703;-0.003;-0.049;-0.087;
20200831_171010;-0.043;4.453;9.469;-0.043;-0.064;-0.073;
20200831_171010;-0.704;3.618;8.380;-0.008;-0.024;-0.034;
20200831_171010;0.105;3.888;8.009;0.002;-0.014;0.026;
20200831_171010;-0.232;5.626;9.337;0.033;-0.030;-0.006;
20200831_171011;-0.038;4.499;7.800;0.024;-0.032;-0.075;
20200831_171011;-0.309;5.861;8.552;0.004;-0.017;-0.085;
20200831_171011;-0.318;5.966;7.870;0.055;-0.052;-0.050;
20200831_171011;-0.251;4.350;8.030;-0.017;-0.062;0.001;
20200831_171011;-0.881;3.874;6.981;0.030;-0.038;0.050;
20200831_171011;-0.668;4.271;9.239;0.036;-0.036;0.086;
20200831_171011;-0.115;6.098;7.216;0.062;0.000;0.107;
20200831_171011;0.302;4.594;8.830;-0.014;-0.013;0.055;
20200831_171011;-0.067;5.195;8.171;0.002;0.024;0.050;
20200831_171011;0.034;4.300;8.377;-0.031;0.053;0.017;
20200831_171012;-0.397;4.439;8.203;0.018;0.044;-0.017;
20200831_171012;0.153;4.336;7.539;-0.000;0.035;-0.008;
20200831_171012;0.879;4.994;7.496;0.018;0.034;-0.122;
20200831_171012;-0.491;4.975;7.980;0.007;0.019;-0.163;
20200831_171012;-0.189;4.106;7.970;0.019;0.008;-0.136;
20200831_171012;-0.759;4.468;8.827;0.021;-0.007;-0.077;
20200831_171012;0.462;3.891;6.735;0.011;-0.023;-0.096;
20200831_171012;-0.414;4.257;8.164;0.017;-0.029;-0.116;
20200831_171012;-0.551;4.360;9.079;-0.029;-0.050;-0.128;
20200831_171013;0.026;4.307;7.535;0.003;-0.064;-0.133;
20200831_171013;-0.069;4.700;8.523;-0.004;-0.070;-0.098;
20200831_171013;-0.148;4.037;8.528;0.011;-0.064;-0.097;
20200831_171013;-0.630;5.069;8.243;0.044;-0.039;-0.069;
20200831_171013;-0.127;4.096;8.147;0.019;-0.099;-0.039;
20200831_171013;-0.153;4.911;8.262;0.022;-0.097;-0.065;
20200831_171013;-0.364;5.116;7.810;0.027;-0.090;-0.015;
20200831_171013;-0.591;4.080;7.511;0.004;-0.077;0.067;
20200831_171013;-0.740;3.424;10.020;0.017;-0.037;0.128;
20200831_171014;-0.239;4.757;9.737;0.009;-0.041;0.163;
20200831_171014;0.278;3.608;8.526;-0.020;-0.015;0.107;
20200831_171014;0.079;4.278;8.375;-0.001;0.039;0.196;
20200831_171014;0.108;4.171;8.399;-0.009;0.094;0.141;
20200831_171014;-0.558;4.429;9.347;0.005;0.124;0.057;
20200831_171014;0.543;3.431;9.380;-0.001;0.092;-0.099;
20200831_171014;0.053;4.039;9.213;-0.013;0.039;-0.291;
20200831_171014;-0.005;5.523;7.475;0.110;0.009;-0.306;
20200831_171014;-0.675;4.329;9.376;-0.024;-0.060;-0.243;
20200831_171014;-0.630;4.255;7.453;-0.059;-0.115;-0.188;
20200831_171015;-0.424;6.045;7.592;-0.090;-0.148;-0.168;
20200831_171015;-1.015;4.580;6.297;-0.033;-0.147;0.165;
20200831_171015;-0.220;6.393;9.325;0.032;-0.111;0.178;
20200831_171015;-3.132;0.682;9.378;-0.171;-0.048;0.330;
20200831_171015;-1.025;1.135;13.379;-0.019;0.039;0.734;
20200831_171015;-0.982;4.266;6.831;0.087;0.136;0.363;
20200831_171015;2.670;4.154;7.913;0.069;0.231;0.262;
20200831_171015;-1.173;7.020;10.623;0.180;0.387;0.252;
20200831_171015;3.697;6.024;13.582;0.051;0.081;-0.585;
20200831_171015;0.409;3.326;10.716;0.034;0.199;-0.780;
20200831_171016;-2.437;8.356;8.504;0.055;0.085;-0.610;
20200831_171016;2.224;2.873;7.922;0.063;-0.094;-0.732;
20200831_171016;-2.219;4.970;8.722;0.149;-0.067;-0.586;
20200831_171016;-1.602;5.600;11.784;-0.132;-0.178;-0.222;
20200831_171016;0.572;4.405;8.428;0.199;-0.048;-0.452;
20200831_171016;0.180;3.706;6.883;0.121;-0.110;-0.595;
20200831_171016;-1.470;3.663;7.410;0.025;-0.088;-0.559;
20200831_171016;0.754;8.329;10.230;-0.034;-0.179;-0.467;
20200831_171016;-0.072;3.821;5.476;0.126;-0.141;-0.577;
20200831_171017;-0.115;5.430;9.728;0.170;-0.144;-0.560;
20200831_171017;-1.788;2.119;9.213;0.064;-0.166;-0.782;
20200831_171017;-3.682;4.717;6.462;0.202;-0.219;-0.616;
20200831_171017;-1.410;3.297;10.853;0.126;-0.353;-0.369;
20200831_171017;-0.472;3.625;4.944;0.466;-0.226;-0.366;
20200831_171017;-1.602;5.071;11.818;0.151;-0.386;-0.271;
20200831_171017;-2.234;6.450;8.049;0.372;-0.184;-0.053;
20200831_171017;0.862;2.277;7.094;0.109;-0.256;-0.044;
20200831_171017;0.237;6.381;7.793;0.090;-0.023;-0.416;
20200831_171018;-0.407;4.432;7.173;-0.173;-0.225;-0.646;
20200831_171018;0.208;4.618;9.273;0.046;-0.237;-0.749;
20200831_171018;-1.530;5.851;10.183;0.201;-0.247;-0.746;
20200831_171018;-1.674;4.587;10.578;0.208;-0.397;-0.574;
20200831_171018;-1.650;4.393;8.499;0.171;-0.451;-0.167;
20200831_171018;-1.061;4.367;10.022;0.163;-0.451;-0.012;
20200831_171018;-0.065;4.774;7.570;0.089;-0.365;0.047;
20200831_171018;-0.994;5.076;6.285;0.044;-0.339;0.075;
20200831_171018;-0.702;2.200;16.065;-0.092;-0.246;0.295;
20200831_171018;1.697;6.175;6.859;0.036;-0.154;0.028;
20200831_171019;0.060;4.295;7.609;0.098;-0.094;-0.180;
20200831_171019;-1.259;3.742;9.522;-0.026;-0.085;-0.226;
20200831_171019;0.247;6.938;6.931;0.042;-0.103;-0.081;
20200831_171019;-0.860;4.190;11.492;-0.078;-0.126;-0.041;
20200831_171019;-1.164;5.260;10.324;-0.019;-0.164;-0.123;
20200831_171019;-1.013;4.053;7.863;-0.049;-0.214;0.050;
20200831_171019;-1.123;4.673;10.216;-0.025;-0.193;0.128;
20200831_171019;-0.958;6.582;7.966;-0.015;-0.240;0.146;
20200831_171019;-0.405;4.781;6.122;0.038;-0.100;0.458;
20200831_171020;-0.153;5.650;7.580;-0.030;0.028;0.530;
20200831_171020;1.887;5.497;6.900;0.001;0.119;0.239;
20200831_171020;-0.268;5.037;9.395;0.004;0.177;0.128;
20200831_171020;0.268;4.633;7.934;0.058;0.220;0.068;
20200831_171020;-0.170;3.364;8.784;0.033;0.241;-0.204;
20200831_171020;0.433;6.280;5.119;-0.045;0.046;-0.387;
20200831_171020;-1.197;4.791;8.073;-0.066;0.009;0.032;
20200831_171020;-0.117;4.276;6.979;0.117;-0.012;0.112;
20200831_171020;-0.268;4.958;8.507;0.137;-0.021;0.015;
20200831_171020;-0.043;3.053;8.868;-0.094;-0.034;0.013;
20200831_171021;0.613;5.557;8.708;-0.019;0.047;0.096;
20200831_171021;-0.263;4.484;8.610;0.054;0.075;-0.186;
20200831_171021;0.551;3.553;9.488;-0.019;-0.016;-0.079;
20200831_171021;0.132;3.670;7.302;0.039;0.066;-0.075;
20200831_171021;-1.056;4.891;8.610;0.082;-0.050;-0.257;
20200831_171021;-1.056;5.495;8.564;-0.022;-0.135;0.009;
20200831_171021;-0.457;3.759;8.796;-0.034;-0.136;0.206;
20200831_171021;-0.898;3.551;7.570;-0.024;-0.025;0.165;
20200831_171021;0.637;3.687;10.175;-0.043;0.001;0.245;
20200831_171022;0.986;5.995;8.401;-0.049;0.073;0.105;
20200831_171022;-0.120;4.611;9.287;-0.005;0.106;-0.119;
20200831_171022;-0.256;5.222;8.878;0.008;0.041;-0.085;
20200831_171022;0.117;4.855;7.817;0.038;0.068;-0.052;
20200831_171022;0.105;5.634;9.402;0.021;0.085;-0.119;
20200831_171022;-0.072;5.030;8.545;-0.018;0.010;-0.018;
20200831_171022;0.144;5.217;8.842;-0.057;-0.059;-0.165;
20200831_171022;-0.565;6.112;7.858;0.074;-0.102;-0.142;
20200831_171022;-0.788;3.986;7.843;0.064;-0.096;0.110;
20200831_171022;0.888;5.107;6.524;-0.058;-0.063;0.058;
20200831_171023;0.548;5.358;8.023;0.036;0.017;0.078;
20200831_171023;0.359;4.140;7.570;0.022;-0.035;0.085;
20200831_171023;-0.326;6.067;7.046;0.042;0.074;0.056;
20200831_171023;-1.128;4.793;8.174;0.025;0.027;-0.009;
20200831_171023;-0.141;6.364;8.188;-0.017;0.021;0.093;
20200831_171023;0.223;3.943;8.973;-0.050;0.019;-0.051;
20200831_171023;-0.412;4.664;7.501;0.025;-0.027;-0.123;
20200831_171023;0.359;7.879;9.443;0.058;-0.034;-0.055;
20200831_171023;-1.314;5.279;9.582;0.014;-0.022;0.041;
20200831_171024;-0.409;4.281;6.711;0.011;0.014;0.114;
20200831_171024;0.520;4.731;10.319;-0.012;0.041;0.024;
20200831_171024;-0.785;6.421;8.902;0.100;-0.047;-0.314;
20200831_171024;-0.642;6.436;7.633;-0.095;-0.155;-0.019;
20200831_171024;-1.707;6.828;7.238;-0.058;-0.073;0.211;
20200831_171024;-1.288;5.440;8.746;-0.004;-0.099;0.308;
20200831_171024;-0.381;3.220;10.977;-0.001;0.013;0.281;
20200831_171024;0.297;5.006;6.211;0.048;0.162;0.112;
20200831_171024;-0.299;5.193;7.159;-0.018;0.151;-0.033;
20200831_171024;0.661;5.684;7.389;0.068;0.122;-0.058;
20200831_171025;0.352;4.326;9.527;0.044;0.140;-0.182;
20200831_171025;-0.941;5.772;9.694;-0.027;0.055;-0.241;
20200831_171025;-0.560;3.886;8.037;-0.047;0.054;0.209;
20200831_171025;1.386;4.384;9.105;-0.047;0.019;-0.133;
20200831_171025;0.215;5.440;7.448;0.061;-0.002;-0.315;
20200831_171025;0.354;5.112;9.716;0.098;-0.038;-0.119;
20200831_171025;-0.285;3.156;12.186;-0.024;-0.065;-0.054;
20200831_171025;0.306;7.298;10.515;0.069;-0.003;0.064;
20200831_171025;-0.055;-1.700;12.845;-0.005;-0.013;-0.189;
20200831_171026;-1.298;7.063;8.693;-0.001;-0.024;-0.099;
20200831_171026;-1.499;5.440;8.538;0.056;-0.030;0.305;
20200831_171026;0.163;4.353;8.377;0.041;0.029;0.088;
20200831_171026;-0.218;4.199;7.705;0.037;0.199;0.070;
20200831_171026;1.669;4.879;6.182;0.018;0.000;-0.397;
20200831_171026;-0.141;4.954;7.094;0.104;-0.020;-0.405;
20200831_171026;-1.185;6.433;7.257;0.111;-0.040;-0.248;
20200831_171026;-1.793;5.191;7.477;-0.014;-0.141;-0.042;
20200831_171026;-1.310;4.154;10.611;0.057;-0.093;0.152;
20200831_171026;-0.792;3.709;9.802;-0.074;-0.110;0.141;
20200831_171027;-0.048;3.790;8.315;-0.007;-0.068;0.073;
20200831_171027;-0.627;4.211;8.973;0.017;-0.002;0.068;
20200831_171027;-0.041;4.707;8.569;-0.056;-0.034;-0.042;
20200831_171027;0.048;4.793;8.162;0.061;-0.036;-0.015;
20200831_171027;-0.646;5.550;11.068;0.002;-0.037;-0.013;
20200831_171027;-1.267;2.921;11.612;-0.002;-0.051;0.046;
20200831_171027;0.034;2.799;8.212;-0.059;-0.048;0.100;
20200831_171027;-0.965;1.927;9.689;-0.070;-0.063;0.082;
20200831_171027;-0.498;5.145;7.549;0.001;0.002;0.237;
20200831_171028;0.299;5.104;6.584;0.013;0.045;0.134;
20200831_171028;0.148;4.583;6.895;-0.002;0.068;0.125;
20200831_171028;-0.208;4.659;6.917;0.041;0.106;0.047;
20200831_171028;0.180;3.294;10.324;-0.013;0.100;0.014;
20200831_171028;-1.061;4.389;10.197;-0.109;0.143;-0.020;
20200831_171028;-0.412;5.703;8.760;-0.063;0.077;-0.142;
20200831_171028;1.233;13.436;9.431;0.087;0.117;-0.225;
20200831_171028;-3.151;5.732;23.255;0.134;0.015;-0.212;
20200831_171028;0.503;0.567;7.750;-0.057;-0.110;-0.128;
20200831_171029;-1.097;0.055;9.522;-0.298;-0.185;0.018;
20200831_171029;-0.520;4.104;9.318;0.020;-0.152;0.274;
20200831_171029;-1.537;5.318;9.694;-0.030;-0.017;0.226;
20200831_171029;-0.225;4.973;9.534;-0.015;0.041;0.215;
20200831_171029;-0.029;4.178;7.424;-0.011;0.041;-0.054;
20200831_171029;0.668;3.110;9.268;0.020;0.021;-0.020;
20200831_171029;-1.310;6.809;7.183;0.106;0.033;-0.095;
20200831_171029;0.634;3.436;7.597;-0.022;-0.081;0.003;
20200831_171029;-0.263;3.764;7.939;-0.029;0.003;0.160;
20200831_171029;0.170;5.485;8.590;0.009;0.041;0.066;
20200831_171030;-0.737;3.922;9.862;0.081;0.083;-0.001;
20200831_171030;-0.084;4.068;9.716;0.060;0.107;-0.026;
20200831_171030;-0.381;4.702;8.701;0.016;0.116;-0.116;
20200831_171030;-0.206;3.349;9.515;0.055;0.094;-0.116;
20200831_171030;1.113;3.060;9.273;-0.005;0.041;-0.221;
20200831_171030;-0.953;3.895;10.958;-0.041;0.014;-0.241;
20200831_171030;-0.678;5.255;10.350;-0.012;-0.068;-0.216;
20200831_171030;-0.433;4.585;10.597;0.048;-0.114;-0.123;
20200831_171030;-1.135;4.147;8.528;0.027;-0.085;-0.009;
20200831_171031;-0.682;3.543;8.248;-0.040;-0.170;-0.003;
20200831_171031;-0.759;5.255;8.784;-0.017;-0.132;0.124;
20200831_171031;-0.199;4.195;9.218;0.006;-0.087;0.206;
20200831_171031;-0.812;3.417;8.593;-0.048;-0.016;0.188;
20200831_171031;-0.239;5.361;8.813;-0.022;0.041;0.105;
20200831_171031;-0.254;3.405;8.861;-0.000;0.047;0.040;
20200831_171031;0.005;5.849;8.325;0.007;0.084;-0.003;
20200831_171031;0.989;5.085;8.001;0.023;0.053;-0.080;
20200831_171031;-0.500;4.255;11.056;-0.034;0.039;-0.087;
20200831_171032;-0.369;4.259;8.770;-0.008;0.001;-0.096;
20200831_171032;-0.136;3.378;8.157;-0.066;-0.021;-0.017;
20200831_171032;-0.649;5.454;7.707;0.021;0.021;0.005;
20200831_171032;-0.539;4.645;7.379;0.036;0.051;0.017;
20200831_171032;0.352;4.211;8.363;-0.008;0.019;0.009;
20200831_171032;-0.759;4.082;10.669;-0.005;0.076;-0.056;
20200831_171032;-0.407;4.046;8.720;0.023;0.031;-0.116;
20200831_171032;-0.706;2.622;9.926;-0.110;-0.001;-0.159;
20200831_171032;-0.249;4.769;8.720;0.044;0.076;-0.086;
20200831_171032;0.139;5.260;7.441;0.072;0.045;-0.215;
20200831_171033;0.311;4.187;10.575;0.002;0.004;-0.193;
20200831_171033;-0.764;5.274;9.079;0.033;-0.032;-0.280;
20200831_171033;-1.030;3.740;11.188;-0.036;-0.065;-0.203;
20200831_171033;-0.788;4.360;7.432;0.067;-0.089;-0.180;
20200831_171033;-0.680;3.579;6.828;-0.012;-0.087;-0.132;
20200831_171033;0.498;7.008;10.578;0.014;-0.131;-0.156;
20200831_171033;-0.065;5.284;6.565;0.036;-0.070;-0.032;
20200831_171033;-1.255;3.539;7.178;0.231;-0.048;0.045;
20200831_171033;-0.903;3.321;8.502;-0.019;-0.022;0.052;
20200831_171034;0.721;3.383;6.759;-0.047;-0.065;-0.009;
20200831_171034;-0.666;4.602;8.289;-0.043;0.043;-0.077;
20200831_171034;-0.120;6.644;4.949;0.035;-0.061;-0.241;
20200831_171034;-0.266;6.043;6.967;0.071;-0.062;-0.168;
20200831_171034;-0.769;4.954;9.081;0.071;-0.054;-0.121;
20200831_171034;-0.548;5.162;7.506;-0.158;-0.082;-0.100;
20200831_171034;-0.819;5.507;8.887;0.077;-0.037;-0.063;
20200831_171034;-1.314;5.270;11.811;0.052;-0.027;0.002;
20200831_171034;-0.397;5.567;9.194;0.067;-0.021;-0.100;
20200831_171034;-0.335;3.211;10.216;-0.051;0.011;-0.143;
20200831_171035;-1.202;5.610;7.446;0.111;0.041;-0.201;
20200831_171035;0.292;5.830;9.182;0.012;-0.028;-0.277;
20200831_171035;-0.570;3.203;7.839;0.055;-0.068;-0.361;
20200831_171035;-0.170;4.554;7.903;-0.037;-0.082;-0.121;
20200831_171035;1.274;4.312;8.437;-0.018;-0.162;-0.529;
20200831_171035;-0.570;4.978;8.349;0.144;-0.168;-0.390;
20200831_171035;-1.156;5.746;12.191;-0.058;-0.313;-0.196;
20200831_171035;-1.386;3.369;6.869;0.045;-0.224;0.086;
20200831_171035;-0.769;7.910;4.834;-0.058;-0.179;0.216;
20200831_171036;-1.058;4.961;10.403;-0.082;-0.244;0.193;
20200831_171036;-0.397;3.474;8.514;0.050;-0.096;0.225;
20200831_171036;0.505;5.023;7.329;-0.089;-0.062;0.261;
20200831_171036;-0.213;5.126;5.962;0.012;0.087;-0.019;
20200831_171036;0.213;5.459;11.648;0.004;0.028;-0.165;
20200831_171036;-0.632;4.283;8.631;-0.013;0.058;-0.194;
20200831_171036;0.280;4.240;9.220;0.012;0.010;-0.237;
20200831_171036;-0.555;5.013;7.274;-0.070;-0.036;-0.180;
20200831_171036;-0.548;2.014;13.451;-0.061;-0.057;-0.041;
20200831_171036;0.654;6.134;9.443;0.012;-0.071;-0.023;
20200831_171037;-0.998;5.574;10.329;0.058;-0.032;-0.044;
20200831_171037;-0.735;4.123;10.353;-0.032;0.001;0.007;
20200831_171037;-0.153;6.833;5.588;0.064;0.017;-0.037;
20200831_171037;0.967;4.611;7.851;-0.019;0.019;-0.110;
20200831_171037;0.146;4.154;7.456;-0.060;-0.029;-0.166;
20200831_171037;0.093;5.155;9.263;-0.038;-0.039;-0.183;
20200831_171037;1.322;1.891;10.877;-0.041;-0.054;-0.163;
20200831_171037;-0.510;4.949;9.110;0.039;-0.061;-0.175;
20200831_171037;-1.085;3.472;10.882;0.095;-0.055;-0.128;
20200831_171037;-1.329;4.441;4.420;0.040;-0.070;0.126;
20200831_171038;-0.225;6.182;4.887;-0.058;-0.096;-0.093;
20200831_171038;-0.065;2.219;9.598;-0.139;-0.243;-0.098;
20200831_171038;-1.233;3.991;8.780;0.089;-0.123;0.093;
20200831_171038;-0.048;3.979;8.059;0.052;-0.069;0.393;
20200831_171038;0.745;4.956;10.159;0.053;-0.044;0.141;
20200831_171038;0.795;5.598;4.748;-0.031;0.016;0.036;
20200831_171038;0.395;6.072;6.328;0.037;-0.046;-0.197;
20200831_171038;-1.183;4.451;9.522;-0.102;-0.068;-0.287;
20200831_171038;0.467;3.666;9.560;-0.001;-0.092;-0.018;
20200831_171039;0.034;5.176;11.320;0.081;-0.018;0.092;
20200831_171039;-2.205;5.667;8.504;-0.060;-0.068;0.164;
20200831_171039;0.316;5.018;9.297;0.003;-0.084;0.298;
20200831_171039;-0.326;3.596;8.480;-0.044;-0.041;0.337;
20200831_171039;0.452;5.856;9.007;-0.007;0.026;0.238;
20200831_171039;-0.972;3.527;9.711;-0.062;-0.043;0.170;
20200831_171039;0.395;3.917;7.309;0.005;0.052;0.273;
20200831_171039;-1.652;3.582;3.136;0.105;0.148;0.237;
20200831_171039;-1.238;3.321;8.997;-0.000;0.178;0.254;
20200831_171039;-0.390;1.652;10.546;-0.010;0.194;0.293;
20200831_171040;-0.467;3.498;9.244;0.015;0.218;0.340;
20200831_171040;0.235;4.566;8.674;0.122;0.265;0.135;
20200831_171040;-0.807;3.254;8.962;0.058;0.287;0.072;
20200831_171040;0.223;2.057;10.657;0.025;0.251;-0.032;
20200831_171040;1.592;3.053;9.888;0.049;0.135;-0.411;
20200831_171040;0.781;4.911;11.262;0.130;0.119;-0.481;
20200831_171040;-0.101;5.262;10.290;0.109;0.054;-0.617;
20200831_171040;-0.582;5.203;10.573;0.032;-0.154;-0.596;
20200831_171040;-0.091;5.116;9.306;0.098;-0.214;-0.505;
20200831_171041;-1.951;4.990;2.569;0.079;-0.283;-0.212;
20200831_171041;-5.758;7.252;-19.783;1.197;0.049;0.284;
20200831_171041;-1.195;15.184;2.488;0.111;-0.028;0.469;
20200831_171041;0.934;-2.691;10.977;0.100;0.110;1.036;
20200831_171041;0.180;9.809;-0.050;-0.012;0.093;0.609;
20200831_171041;1.413;11.538;10.994;0.396;0.245;0.300;
20200831_171041;1.762;15.390;0.438;0.266;-0.069;0.008;
20200831_171041;2.172;-1.132;15.787;-0.277;-0.096;0.209;
20200831_171041;1.693;7.930;5.832;-0.005;0.133;-0.038;
20200831_171041;0.979;3.122;8.950;-0.042;0.027;-0.429;
20200831_171042;-0.800;5.083;11.808;0.018;-0.103;-0.366;
20200831_171042;0.426;4.726;8.399;-0.078;-0.084;0.030;
20200831_171042;-0.575;4.039;7.262;0.142;0.085;0.209;
20200831_171042;0.366;6.586;7.228;-0.110;-0.041;-0.034;
20200831_171042;-0.306;6.926;7.238;0.210;0.078;0.092;
20200831_171042;-1.267;-0.215;13.226;-0.052;0.017;-0.064;
20200831_171042;-0.694;5.820;4.638;-0.016;0.008;-0.113;
20200831_171042;-0.589;3.050;10.855;-0.152;-0.054;-0.119;
20200831_171042;-0.761;6.081;5.341;-0.065;0.038;0.155;
20200831_171043;-1.377;3.764;11.011;0.009;0.088;0.000;
20200831_171043;-0.002;6.278;10.013;0.069;0.066;-0.179;
20200831_171043;-0.206;7.762;6.481;0.082;-0.023;-0.387;
20200831_171043;-0.393;3.608;11.566;-0.036;-0.057;-0.262;
20200831_171043;-0.318;4.599;6.993;0.013;0.011;-0.051;
20200831_171043;-0.900;2.981;13.101;-0.036;0.052;0.001;
20200831_171043;-0.304;5.432;4.911;-0.019;0.011;-0.162;
20200831_171043;-0.412;7.137;8.808;0.088;0.111;-0.042;
20200831_171043;-1.056;5.806;2.641;0.044;0.087;-0.234;
20200831_171044;0.342;4.630;8.495;0.128;-0.119;-0.688;
20200831_171044;0.460;4.209;1.494;0.063;-0.231;-0.549;
20200831_171044;0.661;3.383;6.893;0.080;-0.335;-0.492;
20200831_171044;-1.532;7.197;17.035;-0.078;-0.469;-0.005;
20200831_171044;-1.925;1.664;13.558;-0.008;-0.155;0.615;
20200831_171044;-0.376;4.853;8.935;-0.025;0.042;0.991;
20200831_171044;2.600;4.240;7.336;0.133;0.037;0.295;
20200831_171044;0.773;3.536;12.127;-0.000;0.112;-0.231;
20200831_171044;-0.079;6.553;7.441;0.049;-0.081;-0.471;
20200831_171045;-1.252;2.741;10.848;0.003;-0.085;-0.094;
20200831_171045;-2.045;4.034;10.558;0.037;-0.028;0.351;
20200831_171045;-2.119;0.706;-0.764;-0.145;0.027;0.497;
20200831_171045;0.053;6.385;6.328;0.081;0.092;0.536;
20200831_171045;-0.364;-0.809;10.005;-0.236;0.253;0.429;
20200831_171045;2.298;4.848;9.620;0.027;0.195;-0.063;
20200831_171045;0.555;2.255;12.244;0.029;0.271;-0.244;
20200831_171045;0.534;4.434;7.348;-0.032;0.126;-0.556;
20200831_171045;2.040;3.496;7.618;0.134;-0.044;-0.782;
20200831_171045;-2.322;5.021;11.942;0.118;0.004;-0.421;
20200831_171046;0.431;6.495;4.999;0.204;-0.150;-0.277;
20200831_171046;-1.183;3.361;10.029;0.287;-0.092;-0.165;
20200831_171046;-2.602;2.480;9.981;-0.135;-0.030;0.194;
20200831_171046;0.484;10.748;-4.379;0.261;-0.031;0.160;
20200831_171046;2.337;7.523;5.679;-0.163;-0.134;0.110;
20200831_171046;-1.223;6.675;7.329;0.028;0.001;0.019;
20200831_171046;0.596;10.520;6.153;0.214;-0.045;0.074;
20200831_171046;-0.077;3.622;7.891;0.131;-0.005;0.090;
20200831_171046;-0.022;4.487;7.949;0.031;0.006;0.122;
20200831_171047;-0.529;6.558;3.201;0.166;-0.041;-0.035;
20200831_171047;-0.800;3.900;12.572;-0.010;-0.092;0.021;
20200831_171047;-0.551;5.286;10.685;-0.062;-0.046;0.174;
20200831_171047;1.997;3.500;10.242;0.021;0.029;-0.014;
20200831_171047;0.273;5.265;10.233;-0.025;-0.051;-0.140;
20200831_171047;-1.877;4.573;10.506;-0.043;0.053;0.231;
20200831_171047;-0.594;5.983;18.170;-0.031;0.159;0.343;
20200831_171047;0.105;4.214;4.173;-0.063;0.295;0.171;
20200831_171047;-2.363;-0.213;-10.044;0.186;0.236;-0.393;
20200831_171047;2.009;6.342;12.838;-0.069;0.107;-0.528;
20200831_171048;-2.066;-9.941;20.300;0.004;0.067;-0.255;
20200831_171048;4.104;-6.225;-4.578;0.595;0.155;-0.218;
20200831_171048;-4.446;1.188;7.654;0.258;-0.378;0.081;
20200831_171048;-1.041;2.382;0.819;-0.625;-0.350;0.452;
20200831_171048;7.288;8.531;-10.441;-1.308;-0.510;0.013;
20200831_171048;4.903;0.433;8.183;-0.289;-0.048;0.820;
20200831_171048;2.698;9.072;7.494;0.028;0.032;0.229;
20200831_171048;0.029;3.855;11.993;0.137;0.069;0.011;
20200831_171048;-0.275;1.855;6.175;0.038;0.179;0.290;
20200831_171049;0.144;4.970;6.433;-0.049;0.202;0.124;
20200831_171049;-0.996;6.213;9.024;0.056;0.134;0.017;
20200831_171049;-0.910;1.650;10.441;-0.146;0.045;-0.142;
20200831_171049;0.927;5.114;6.266;-0.060;0.020;-0.110;
20200831_171049;0.177;3.563;7.451;0.069;0.014;-0.191;
20200831_171049;-0.247;3.967;9.759;-0.099;-0.056;-0.087;
20200831_171049;-0.299;5.643;6.428;-0.000;0.021;-0.068;
20200831_171049;1.310;6.002;8.416;0.080;-0.002;-0.173;
20200831_171049;-0.014;6.105;7.353;0.085;-0.001;-0.154;
20200831_171050;-0.941;5.040;8.887;0.056;-0.092;-0.123;
20200831_171050;-0.031;5.001;8.856;0.016;-0.051;-0.022;
20200831_171050;-2.093;4.556;7.800;0.001;-0.021;0.174;
20200831_171050;-0.515;4.762;8.483;-0.012;0.071;0.228;
20200831_171050;-1.300;5.298;7.293;-0.008;0.088;0.053;
20200831_171050;0.661;3.579;9.407;-0.017;-0.053;-0.039;
20200831_171050;-0.395;5.195;8.720;-0.020;0.008;-0.124;
20200831_171050;0.323;4.161;6.512;0.037;-0.093;-0.116;
20200831_171050;1.707;6.187;5.969;-0.004;-0.004;0.020;
20200831_171051;0.249;4.436;11.904;-0.076;-0.023;-0.128;
20200831_171051;-0.821;4.590;9.084;-0.011;0.002;-0.137;
20200831_171051;-0.335;4.199;5.892;0.105;-0.029;-0.036;
20200831_171051;-0.168;6.053;8.119;-0.010;-0.104;-0.139;
20200831_171051;-0.589;5.456;8.650;-0.060;-0.043;0.008;
20200831_171051;-1.671;4.465;6.574;-0.004;-0.015;0.216;
20200831_171051;-0.433;4.211;8.454;-0.035;0.019;0.313;
20200831_171051;0.994;5.215;7.005;0.037;0.071;0.147;
20200831_171051;0.283;4.786;8.808;-0.005;0.028;-0.216;
20200831_171051;-0.160;4.183;7.937;0.041;-0.003;-0.311;
20200831_171052;1.178;4.288;15.938;0.028;0.001;-0.213;
20200831_171052;0.469;4.824;7.336;-0.041;-0.089;-0.081;
20200831_171052;-0.939;2.907;10.941;-0.038;-0.097;-0.006;
20200831_171052;-1.489;5.255;8.957;-0.008;-0.049;0.196;
20200831_171052;0.177;4.003;7.398;-0.050;0.008;0.315;
20200831_171052;-1.226;4.262;8.478;-0.041;0.077;0.231;
20200831_171052;0.019;4.683;6.914;-0.026;0.103;0.109;
20200831_171052;-0.132;5.308;7.858;0.040;0.125;-0.067;
20200831_171052;-1.439;3.534;8.839;-0.069;0.068;-0.101;
20200831_171053;-0.565;4.755;8.370;0.029;-0.098;-0.275;
20200831_171053;1.441;4.568;8.313;0.049;-0.055;0.029;
20200831_171053;0.263;5.236;10.223;-0.014;-0.007;0.028;
20200831_171053;0.024;4.539;9.448;0.035;-0.010;-0.093;
20200831_171053;-1.537;3.740;7.147;0.082;0.005;0.011;
20200831_171053;-0.237;5.995;6.120;-0.089;-0.049;0.224;
20200831_171053;-0.366;4.199;11.116;-0.092;-0.029;0.102;
20200831_171053;-0.309;5.313;8.356;-0.032;0.062;0.145;
20200831_171053;-0.512;4.666;9.708;-0.062;0.128;0.197;
20200831_171054;-0.105;4.671;8.734;-0.043;0.006;-0.133;
20200831_171054;-0.644;6.136;7.008;0.103;0.054;-0.120;
20200831_171054;-0.244;4.039;7.628;-0.014;-0.070;0.045;
20200831_171054;1.240;4.008;9.045;-0.052;0.059;0.178;
20200831_171054;0.340;4.441;7.259;-0.051;0.068;-0.002;
20200831_171054;0.074;3.431;9.754;-0.086;0.113;-0.154;
20200831_171054;-0.041;3.833;10.829;0.039;0.060;-0.243;
20200831_171054;-0.120;3.795;10.137;0.086;0.054;-0.155;
20200831_171054;0.026;5.246;6.756;0.090;0.026;-0.194;
20200831_171054;0.510;4.494;10.542;-0.051;-0.055;-0.196;
20200831_171055;-1.930;4.894;7.784;0.088;-0.045;-0.206;
20200831_171055;-0.321;3.625;10.228;-0.095;-0.233;0.016;
20200831_171055;-1.882;9.311;5.643;0.193;0.012;0.138;
20200831_171055;-0.452;7.178;7.870;-0.047;-0.092;-0.016;
20200831_171055;0.230;7.681;7.183;0.018;-0.134;-0.297;
20200831_171055;-3.472;9.280;3.096;-0.220;-0.339;0.039;
20200831_171055;-2.749;0.467;15.206;0.188;-0.087;0.248;
20200831_171055;-0.180;6.608;7.894;-0.115;-0.061;0.682;
20200831_171055;-2.365;1.147;12.244;0.047;0.113;0.829;
20200831_171056;0.706;4.020;13.199;-0.073;0.175;0.106;
20200831_171056;-0.692;0.661;15.560;0.060;0.209;0.256;
20200831_171056;1.211;1.638;11.468;0.050;0.123;0.078;
20200831_171056;-0.180;7.518;6.354;-0.021;0.096;-0.072;
20200831_171056;-0.441;6.979;6.110;0.030;0.085;0.070;
20200831_171056;0.084;7.532;6.965;0.100;0.104;-0.111;
20200831_171056;-1.197;3.867;13.982;0.031;0.146;0.162;
20200831_171056;2.231;4.925;5.464;-0.142;0.063;-0.185;
20200831_171056;0.275;4.705;8.586;-0.021;0.065;-0.230;
20200831_171056;-0.584;2.653;9.934;-0.040;-0.044;-0.103;
20200831_171057;2.066;0.591;11.875;-0.177;0.008;0.086;
20200831_171057;-2.102;5.933;8.997;0.107;0.197;0.064;
20200831_171057;0.845;2.808;10.791;0.080;-0.069;-0.165;
20200831_171057;-1.662;5.969;7.317;-0.072;-0.087;-0.193;
20200831_171057;-0.084;2.950;7.728;-0.000;-0.190;0.161;
20200831_171057;-0.424;6.981;9.349;-0.018;-0.094;0.068;
20200831_171057;1.499;4.233;10.233;-0.076;-0.123;0.026;
20200831_171057;-1.269;6.390;8.590;-0.011;0.059;0.035;
20200831_171057;-0.086;3.184;8.025;-0.042;0.063;0.089;
20200831_171058;0.769;4.855;6.354;-0.048;0.115;-0.030;
20200831_171058;-0.716;2.454;10.139;0.029;0.088;-0.191;
20200831_171058;-0.622;5.339;9.397;-0.040;-0.090;-0.307;
20200831_171058;-1.386;6.211;8.859;0.027;-0.110;0.144;
20200831_171058;-0.479;5.437;7.733;-0.051;-0.133;0.266;
20200831_171058;-0.682;4.623;5.131;0.079;0.074;0.198;
20200831_171058;0.754;4.070;9.043;-0.098;-0.076;-0.136;
20200831_171058;-0.362;3.445;11.238;-0.022;-0.013;-0.153;
20200831_171058;-1.508;3.314;11.186;-0.001;0.055;0.128;
20200831_171059;-1.226;5.080;5.004;0.054;0.083;0.232;
20200831_171059;0.936;3.342;11.732;0.101;0.234;0.124;
20200831_171059;-0.637;1.853;9.912;-0.145;0.081;-0.255;
20200831_171059;-0.891;3.773;8.590;-0.132;0.031;-0.123;
20200831_171059;1.353;3.476;10.137;0.066;-0.033;-0.332;
20200831_171059;-1.106;5.356;8.837;0.005;-0.074;-0.221;
20200831_171059;0.237;4.082;8.083;-0.035;-0.191;-0.047;
20200831_171059;0.448;5.459;5.873;0.071;-0.109;0.037;
20200831_171059;-0.895;3.795;12.151;-0.041;-0.059;0.162;
20200831_171059;-1.666;3.479;8.605;-0.001;-0.013;0.256;
20200831_171100;0.771;6.572;8.150;-0.024;0.079;0.181;
20200831_171100;0.591;5.492;7.379;-0.073;0.129;-0.108;
20200831_171100;0.795;4.793;9.313;-0.075;0.060;-0.270;
20200831_171100;-0.330;4.676;7.939;-0.061;-0.017;-0.496;
20200831_171100;-0.951;6.414;7.168;-0.042;-0.160;-0.279;
20200831_171100;-1.123;4.796;7.925;0.009;-0.094;0.236;
20200831_171100;0.484;7.274;5.344;-0.029;0.018;0.362;
20200831_171100;-0.069;4.089;9.026;-0.035;0.099;0.274;
20200831_171100;0.302;4.683;10.199;0.196;0.218;-0.044;
20200831_171100;0.275;3.352;8.636;0.002;0.160;-0.291;
20200831_171101;0.057;4.156;10.647;-0.003;0.150;-0.427;
20200831_171101;0.381;4.123;9.254;0.088;0.031;-0.574;
20200831_171101;-1.073;3.737;7.427;-0.025;-0.069;-0.351;
20200831_171101;-0.385;5.607;10.458;0.096;-0.128;-0.427;
20200831_171101;-0.965;5.811;7.072;0.106;-0.183;-0.395;
20200831_171101;-1.666;5.195;8.480;0.063;-0.213;-0.146;
20200831_171101;-0.678;1.925;9.819;0.019;-0.134;0.107;
20200831_171101;0.951;4.539;9.230;0.022;-0.090;-0.105;
20200831_171101;-0.005;2.459;8.270;-0.051;-0.108;-0.469;
20200831_171102;-0.903;3.390;9.529;-0.002;-0.215;-0.331;
20200831_171102;-0.718;4.120;7.906;0.001;-0.223;-0.131;
20200831_171102;-1.458;4.264;10.020;-0.005;-0.167;-0.006;
20200831_171102;-1.125;4.049;7.506;-0.016;-0.141;0.029;
20200831_171102;-0.048;3.661;7.001;0.091;-0.136;-0.230;
20200831_171102;-0.407;7.654;8.339;0.175;-0.179;-0.171;
20200831_171102;-1.851;5.820;8.289;-0.004;-0.195;0.065;
20200831_171102;0.086;4.037;8.296;0.064;-0.096;0.309;
20200831_171102;0.752;4.717;11.514;-0.067;-0.034;0.102;
20200831_171103;0.280;4.429;6.206;0.028;-0.013;0.018;
20200831_171103;-0.831;6.862;8.408;-0.000;0.029;-0.035;
20200831_171103;-0.572;5.241;7.774;-0.068;0.063;0.007;
20200831_171103;0.151;7.604;7.046;-0.111;0.066;-0.005;
20200831_171103;-0.180;6.981;8.914;-0.015;0.095;-0.220;
20200831_171103;-0.402;4.156;10.180;-0.011;0.038;-0.273;
20200831_171103;0.151;6.898;6.740;0.175;0.043;-0.373;
20200831_171103;-0.153;7.479;4.975;0.104;-0.039;-0.413;
20200831_171103;0.958;4.726;9.062;0.065;-0.139;-0.418;
20200831_171103;0.326;4.403;9.517;-0.029;-0.260;-0.623;
20200831_171104;-0.742;4.891;10.029;0.081;-0.212;-0.232;
20200831_171104;-1.408;3.740;4.793;-0.002;-0.243;0.115;
20200831_171104;0.153;2.658;8.246;-0.019;-0.108;0.167;
20200831_171104;0.180;3.819;10.434;-0.000;-0.051;-0.113;
20200831_171104;-1.729;3.539;11.229;0.021;-0.095;-0.097;
20200831_171104;0.474;4.482;10.704;-0.067;-0.088;0.067;
20200831_171104;1.319;4.415;8.724;0.042;-0.145;-0.193;
20200831_171104;-0.745;8.392;5.341;0.094;-0.073;-0.139;
20200831_171104;0.759;5.665;7.793;-0.073;-0.251;-0.170;
20200831_171105;-1.195;3.448;8.916;-0.087;-0.132;-0.102;
20200831_171105;-0.809;4.034;9.452;-0.027;-0.119;-0.123;
20200831_171105;-1.101;3.579;11.207;0.079;-0.063;0.114;
20200831_171105;-0.469;4.659;7.343;0.125;-0.010;0.117;
20200831_171105;0.747;3.144;12.842;0.068;0.041;0.042;
20200831_171105;-1.267;5.885;0.649;-0.085;-0.047;-0.051;
20200831_171105;-0.733;5.514;7.324;-0.002;0.044;0.001;
20200831_171105;-0.263;-0.031;13.101;0.071;0.144;-0.072;
20200831_171105;-1.346;4.017;8.777;0.050;0.107;-0.281;
20200831_171105;-1.460;7.029;9.455;-0.176;-0.146;-0.008;
20200831_171106;0.917;2.023;15.790;0.097;0.017;-0.249;
20200831_171106;1.489;1.623;9.268;0.040;-0.069;-0.479;
20200831_171106;0.132;5.353;4.688;0.146;-0.210;-0.743;
20200831_171106;-2.444;4.626;9.084;0.152;-0.264;-0.454;
20200831_171106;-2.112;2.540;10.566;0.112;-0.337;0.009;
20200831_171106;-2.057;3.627;7.496;0.009;-0.145;0.539;
20200831_171106;-1.334;7.939;2.241;0.186;-0.033;0.586;
20200831_171106;0.718;3.850;9.661;-0.048;-0.025;0.253;
20200831_171106;1.116;1.403;10.697;0.115;-0.070;-0.171;
20200831_171107;-1.302;6.613;7.460;-0.090;-0.080;0.027;
20200831_171107;0.424;3.165;9.493;-0.014;-0.001;0.301;
20200831_171107;1.168;5.049;8.550;-0.053;0.065;0.025;
20200831_171107;1.188;4.089;10.654;-0.041;0.077;-0.315;
20200831_171107;0.101;3.979;9.292;-0.019;-0.003;-0.464;
20200831_171107;0.124;6.060;9.694;0.028;-0.034;-0.378;
20200831_171107;-0.239;4.436;5.526;0.127;-0.006;-0.123;
20200831_171107;-1.298;4.793;7.348;0.056;-0.085;-0.172;
20200831_171107;-1.683;3.934;7.616;0.023;-0.100;-0.074;
20200831_171107;-1.034;4.511;11.418;-0.076;-0.135;0.277;
20200831_171108;-0.922;2.772;7.884;0.019;-0.082;0.085;
20200831_171108;-1.046;4.726;9.723;0.070;-0.098;0.077;
20200831_171108;-0.110;4.470;9.246;-0.061;-0.067;0.206;
20200831_171108;-0.110;4.836;8.581;-0.080;0.005;0.254;
20200831_171108;0.402;6.017;6.519;-0.019;0.092;0.149;
20200831_171108;0.685;4.882;8.729;0.089;0.136;0.117;
20200831_171108;0.943;3.203;7.029;0.069;0.213;-0.033;
20200831_171108;0.055;4.223;9.143;0.029;0.085;-0.376;
20200831_171108;1.075;5.631;6.460;0.011;0.021;-0.391;
20200831_171109;-3.007;4.846;8.689;0.066;0.012;-0.169;
20200831_171109;-0.263;3.618;12.261;0.084;-0.162;-0.221;
20200831_171109;-1.116;5.531;8.121;-0.010;-0.185;-0.093;
20200831_171109;-0.541;2.512;11.586;-0.053;-0.188;0.008;
20200831_171109;0.103;4.688;7.884;0.018;-0.099;0.112;
20200831_171109;-0.057;4.606;7.695;-0.048;-0.157;0.090;
20200831_171109;-0.251;2.811;8.301;-0.118;-0.053;0.391;
20200831_171109;-0.366;5.854;6.033;0.064;0.116;0.386;
20200831_171109;0.764;5.073;5.011;0.102;0.188;0.321;
20200831_171110;0.091;6.199;9.919;0.014;0.137;-0.009;
20200831_171110;-0.426;5.839;3.792;0.150;0.218;-0.013;
20200831_171110;-0.546;4.147;9.462;0.049;0.084;0.014;
20200831_171110;0.965;3.105;7.700;-0.093;0.031;-0.180;
20200831_171110;-0.627;5.947;7.930;0.038;-0.052;-0.243;
20200831_171110;-0.505;4.987;11.574;-0.014;-0.029;0.020;
20200831_171110;-0.134;4.401;10.580;0.053;0.010;-0.095;
20200831_171110;0.139;6.261;10.216;-0.066;-0.036;-0.025;
20200831_171110;-0.678;3.180;11.061;-0.093;-0.015;0.043;
20200831_171111;-0.151;4.106;7.369;-0.013;0.080;0.139;
20200831_171111;-0.132;5.468;5.705;0.056;0.098;-0.004;
20200831_171111;-0.122;3.733;7.415;-0.013;0.003;-0.217;
20200831_171111;-0.189;2.765;8.794;0.116;-0.052;-0.348;
20200831_171111;-0.680;3.596;9.579;-0.046;-0.136;-0.091;
20200831_171111;-0.074;4.259;9.596;-0.025;-0.216;-0.073;
20200831_171111;-0.541;6.905;3.342;-0.142;-0.164;0.091;
20200831_171111;-0.409;6.333;8.519;0.003;-0.094;0.015;
20200831_171111;-0.256;4.527;6.845;0.012;-0.106;0.043;
20200831_171112;-0.905;5.033;11.842;-0.066;-0.034;0.165;
20200831_171112;0.757;4.094;6.656;-0.017;0.029;0.247;
20200831_171112;0.316;5.871;9.345;0.018;0.061;0.077;
20200831_171112;0.591;6.426;7.697;0.112;0.108;-0.121;
20200831_171112;-0.606;4.362;9.436;0.027;-0.013;-0.132;
20200831_171112;-1.250;4.211;9.536;-0.037;-0.055;-0.017;
20200831_171112;-1.326;4.530;8.090;0.002;0.021;0.219;
20200831_171112;0.421;4.372;9.206;-0.056;0.017;0.137;
20200831_171112;0.730;4.322;6.900;-0.123;0.049;0.016;
20200831_171112;1.269;6.160;8.104;0.128;0.069;-0.254;
20200831_171113;-0.390;2.990;11.317;0.044;0.014;-0.031;
20200831_171113;0.311;4.374;13.309;0.065;0.018;0.019;
20200831_171113;0.165;7.010;4.820;0.085;0.081;-0.007;
20200831_171113;-0.826;3.838;7.637;-0.083;0.057;0.060;
20200831_171113;0.175;5.248;6.981;-0.040;0.096;0.133;
20200831_171113;0.503;3.239;6.194;-0.001;0.019;0.030;
20200831_171113;0.984;4.164;5.883;0.057;0.020;-0.082;
20200831_171113;-0.328;4.796;5.339;0.030;-0.130;-0.225;
20200831_171113;1.068;5.844;6.512;-0.052;-0.027;-0.046;
20200831_171114;-0.680;4.099;8.602;0.072;0.029;-0.041;
20200831_171114;-0.651;7.245;6.586;0.071;0.076;0.086;
20200831_171114;-1.324;5.799;9.254;0.017;0.113;-0.118;
20200831_171114;0.340;4.343;8.159;0.101;0.117;-0.025;
20200831_171114;1.183;3.057;10.819;0.097;0.095;-0.179;
20200831_171114;-0.838;4.896;7.855;0.145;-0.063;-0.429;
20200831_171114;-1.738;2.382;16.649;0.041;-0.126;-0.013;
20200831_171114;-0.168;3.275;12.754;0.066;-0.211;0.017;
20200831_171114;0.072;5.557;5.061;0.040;-0.097;0.221;
20200831_171114;-1.077;7.657;12.627;-0.092;-0.143;0.265;
20200831_171115;0.608;4.990;11.035;-0.146;-0.067;0.281;
20200831_171115;0.654;6.144;7.017;-0.108;-0.008;-0.087;
20200831_171115;-0.505;3.764;6.974;-0.065;-0.049;-0.025;
20200831_171115;-1.626;4.255;7.487;0.073;-0.011;0.245;
20200831_171115;-0.460;4.274;11.839;0.002;0.065;0.240;
20200831_171115;0.536;2.097;10.199;-0.131;0.052;0.129;
20200831_171115;1.252;6.924;10.997;-0.035;0.079;-0.144;
20200831_171115;-2.313;5.447;7.010;-0.040;0.054;-0.016;
20200831_171115;1.085;2.215;7.221;-0.123;-0.017;-0.132;
20200831_171116;-1.381;5.186;9.041;-0.003;0.015;-0.257;
20200831_171116;0.488;5.045;4.061;-0.078;-0.112;0.044;
20200831_171116;-0.263;6.103;6.886;0.032;-0.036;-0.184;
20200831_171116;-0.532;3.115;13.431;-0.076;-0.089;-0.048;
20200831_171116;1.132;5.823;10.178;-0.082;-0.130;0.260;
20200831_171116;-0.761;4.278;10.003;0.101;0.053;0.349;
20200831_171116;-0.218;2.684;7.202;-0.012;0.113;0.353;
20200831_171116;-1.077;5.454;6.345;-0.001;0.155;-0.112;
20200831_171116;-0.012;4.707;6.771;-0.002;0.075;-0.137;
20200831_171117;-0.582;4.513;7.101;0.037;0.079;-0.191;
20200831_171117;-0.414;8.047;7.556;-0.069;-0.163;-0.345;
20200831_171117;0.345;3.694;7.760;0.053;-0.096;-0.222;
20200831_171117;-0.582;13.721;9.060;0.038;-0.135;-0.115;
20200831_171117;0.883;4.123;9.033;-0.208;-0.250;-0.079;
20200831_171117;-0.476;5.626;7.693;0.098;-0.008;0.261;
20200831_171117;-0.769;4.049;10.448;-0.070;0.015;0.367;
20200831_171117;0.354;3.541;9.495;0.014;0.109;0.160;
20200831_171117;-0.338;6.244;9.110;0.110;0.137;-0.139;
20200831_171117;-1.499;3.689;10.843;-0.069;0.041;0.028;
20200831_171118;1.367;3.704;5.593;-0.066;0.026;-0.163;
20200831_171118;-1.168;8.294;7.015;0.097;-0.061;-0.182;
20200831_171118;0.769;3.455;11.317;0.022;-0.085;0.149;
20200831_171118;0.256;1.080;9.081;-0.295;-0.019;-0.037;
20200831_171118;1.693;2.083;7.592;-0.037;0.006;-0.065;
20200831_171118;1.065;4.149;7.142;-0.058;-0.037;-0.164;
20200831_171118;-1.513;3.021;8.217;-0.056;-0.019;0.084;
20200831_171118;-1.010;5.334;5.624;-0.048;0.118;0.132;
20200831_171118;-0.263;5.725;5.947;0.106;0.006;-0.377;
20200831_171119;0.594;4.436;10.343;0.024;-0.048;-0.135;
20200831_171119;-1.647;4.623;5.995;0.045;-0.101;-0.017;
20200831_171119;-0.802;5.753;8.619;0.081;-0.120;0.016;
20200831_171119;0.452;3.211;9.816;-0.030;-0.154;-0.007;
20200831_171119;-0.474;4.022;5.859;0.031;0.044;0.256;
20200831_171119;1.527;4.724;5.322;0.097;0.006;0.026;
20200831_171119;0.247;2.413;7.475;-0.003;0.009;-0.100;
20200831_171119;-0.213;2.442;10.173;-0.112;-0.015;0.023;
20200831_171119;-0.615;4.750;6.373;-0.033;-0.010;0.051;
20200831_171120;-0.958;6.153;7.748;-0.172;0.039;0.280;
20200831_171120;0.412;3.412;8.260;-0.026;0.095;0.192;
20200831_171120;-0.965;5.459;7.910;0.012;0.091;0.007;
20200831_171120;1.334;5.574;4.199;-0.060;0.043;-0.031;
20200831_171120;-1.628;7.309;11.586;0.054;0.035;-0.046;
20200831_171120;0.158;5.586;8.552;0.046;0.026;-0.025;
20200831_171120;-0.991;6.074;7.822;-0.049;0.016;-0.054;
20200831_171120;1.432;5.167;9.507;0.013;0.008;-0.251;
20200831_171120;-0.943;5.258;6.122;0.001;0.030;-0.267;
20200831_171121;-0.589;5.262;11.322;-0.028;0.051;-0.071;
20200831_171121;-0.658;4.441;7.209;0.037;0.046;-0.026;
20200831_171121;1.367;6.369;8.758;0.005;-0.071;-0.367;
20200831_171121;-1.041;5.102;7.549;-0.019;-0.133;-0.134;
20200831_171121;-2.473;4.487;8.657;0.009;-0.031;0.176;
20200831_171121;-1.307;8.418;8.768;0.028;-0.149;0.147;
20200831_171121;-1.185;4.566;11.564;-0.036;-0.004;0.359;
20200831_171121;0.613;6.266;6.977;0.077;0.055;0.028;
20200831_171121;1.286;4.231;8.657;-0.009;0.044;-0.150;
20200831_171121;0.362;3.424;9.412;-0.009;0.117;-0.236;
20200831_171122;-0.014;3.596;10.460;-0.115;0.076;-0.276;
20200831_171122;-1.516;4.413;8.176;0.018;0.053;-0.225;
20200831_171122;-1.604;6.709;4.190;0.267;-0.005;-0.285;
20200831_171122;-0.225;4.068;7.764;0.156;-0.083;-0.274;
20200831_171122;-1.609;3.048;8.540;-0.076;-0.258;-0.163;
20200831_171122;-0.342;5.303;8.933;-0.114;-0.240;-0.021;
20200831_171122;-1.073;6.007;7.566;-0.177;-0.343;0.168;
20200831_171122;0.074;4.990;3.699;0.023;-0.126;0.411;
20200831_171122;0.014;7.142;10.223;-0.058;-0.106;0.067;
20200831_171123;0.836;1.283;8.399;-0.033;-0.055;-0.099;
20200831_171123;0.553;5.636;8.933;0.062;-0.004;0.230;
20200831_171123;-1.686;5.775;14.679;-0.040;-0.028;0.291;
20200831_171123;-0.670;3.247;10.065;-0.081;0.079;0.251;
20200831_171123;1.446;5.878;12.359;0.130;0.231;0.055;
20200831_171123;-2.768;5.473;6.816;0.154;0.277;-0.124;
20200831_171123;1.554;5.478;10.424;-0.108;-0.059;-0.439;
20200831_171123;-2.792;5.380;8.480;0.063;-0.010;-0.228;
20200831_171123;0.661;5.217;7.992;0.051;0.005;0.015;
20200831_171123;2.124;5.078;5.725;-0.079;-0.024;-0.124;
20200831_171124;-0.469;4.326;10.159;0.016;0.069;-0.162;
20200831_171124;0.175;2.179;6.967;-0.010;0.066;-0.083;
20200831_171124;0.254;8.059;10.321;-0.045;-0.007;-0.202;
20200831_171124;-0.230;3.318;8.215;-0.043;0.026;-0.342;
20200831_171124;-0.589;2.227;26.456;-0.015;-0.048;-0.166;
20200831_171124;-0.608;2.535;0.294;-0.047;-0.210;-0.057;
20200831_171124;0.110;7.688;8.547;0.278;-0.169;-0.237;
20200831_171124;-1.762;2.468;3.235;-0.086;-0.199;-0.110;
20200831_171124;-0.910;2.145;5.294;-0.072;-0.292;0.163;
20200831_171125;2.986;4.654;23.865;-0.028;-0.033;0.281;
20200831_171125;0.259;-2.373;0.960;-0.067;-0.079;0.175;
20200831_171125;-1.176;20.944;5.370;0.463;0.151;0.223;
20200831_171125;-5.933;1.844;3.266;0.210;0.144;0.010;
20200831_171125;-1.410;2.696;6.074;0.040;0.211;0.029;
20200831_171125;1.343;6.941;7.666;0.029;-0.044;-0.382;
20200831_171125;-0.393;-1.420;12.313;-0.118;0.006;-0.200;
20200831_171125;-0.560;4.051;10.848;-0.082;-0.095;0.142;
20200831_171125;-1.123;2.677;9.814;-0.217;-0.145;0.107;
20200831_171125;0.694;5.737;8.574;0.035;0.068;0.193;
20200831_171126;1.434;5.787;4.963;-0.000;0.074;-0.017;
20200831_171126;-0.287;6.448;10.341;0.077;-0.013;-0.402;
20200831_171126;-0.261;2.559;7.173;0.002;-0.088;-0.083;
20200831_171126;1.379;6.946;6.977;0.074;-0.032;0.003;
20200831_171126;-1.286;3.304;12.862;-0.073;-0.008;0.289;
20200831_171126;-1.858;7.202;7.242;0.110;0.030;0.321;
20200831_171126;-0.634;5.895;3.883;0.009;0.083;-0.024;
20200831_171126;0.491;3.314;4.559;-0.002;-0.046;-0.143;
20200831_171126;-1.046;3.979;12.081;-0.026;-0.017;-0.152;
20200831_171127;-0.658;1.295;11.897;0.054;-0.074;-0.015;
20200831_171127;-1.508;7.333;12.203;-0.003;-0.060;0.175;
20200831_171127;1.058;3.445;6.596;-0.044;-0.049;0.073;
20200831_171127;3.208;11.753;-4.647;0.678;0.211;0.113;
20200831_171127;3.160;7.015;13.534;-0.242;0.002;0.184;
20200831_171127;1.192;-1.180;28.515;-0.353;0.093;-0.055;
20200831_171127;3.074;8.916;11.552;0.179;0.068;-0.100;
20200831_171127;-0.141;-5.710;14.430;-0.370;0.076;-0.326;
20200831_171127;1.951;4.867;14.231;0.071;0.114;-0.297;
20200831_171128;-1.116;7.824;4.183;0.131;-0.119;-0.396;
20200831_171128;-0.917;6.354;4.982;-0.000;-0.067;0.085;
20200831_171128;0.491;2.794;5.665;-0.053;-0.102;0.158;
20200831_171128;1.089;5.634;9.282;-0.126;0.011;0.058;
20200831_171128;0.266;3.479;9.012;-0.086;-0.030;0.057;
20200831_171128;0.017;5.363;8.811;0.069;0.054;-0.096;
20200831_171128;-0.527;4.508;7.345;0.069;0.137;-0.237;
20200831_171128;-1.211;5.265;9.713;-0.008;-0.007;-0.077;
20200831_171128;-0.227;4.159;9.531;-0.048;-0.033;0.066;
20200831_171129;-0.596;3.033;8.004;0.050;-0.110;-0.334;
20200831_171129;-0.263;5.061;11.119;0.094;-0.106;-0.159;
20200831_171129;-1.348;3.194;8.396;-0.002;-0.158;0.232;
20200831_171129;0.448;4.937;6.280;0.049;-0.096;0.192;
20200831_171129;0.649;4.743;9.716;-0.075;-0.020;0.137;
20200831_171129;0.608;3.397;10.077;-0.068;-0.138;-0.030;
20200831_171129;-1.233;4.343;6.785;-0.010;-0.021;0.401;
20200831_171129;-0.275;4.958;13.750;0.103;0.186;0.280;
20200831_171129;-0.287;5.057;10.446;-0.033;0.125;-0.040;
20200831_171129;0.922;4.796;9.148;-0.025;0.048;-0.152;
20200831_171130;-1.252;4.063;9.735;-0.044;0.085;-0.169;
20200831_171130;-0.905;2.308;5.466;0.160;0.085;-0.085;
20200831_171130;-0.759;5.356;11.021;-0.086;-0.082;-0.097;
20200831_171130;-0.366;4.099;12.960;-0.108;0.008;0.027;
20200831_171130;0.764;7.259;8.571;-0.036;0.025;-0.175;
20200831_171130;0.788;6.809;6.278;0.293;0.078;0.139;
20200831_171130;-3.275;9.141;11.023;-0.247;-0.049;0.062;
20200831_171130;0.709;9.330;-0.754;0.291;0.100;0.200;
20200831_171130;0.421;8.547;4.197;0.049;0.022;-0.035;
20200831_171131;-1.305;4.020;9.297;-0.060;0.045;0.044;
20200831_171131;1.336;3.237;11.246;0.032;-0.032;0.137;
20200831_171131;0.294;5.698;12.996;0.070;-0.002;-0.093;
20200831_171131;-2.507;6.912;8.988;0.117;0.150;-0.049;
20200831_171131;0.790;6.359;10.257;0.025;-0.109;0.050;
20200831_171131;0.010;4.154;7.578;0.068;0.116;0.083;
20200831_171131;1.128;5.286;10.082;-0.052;-0.041;-0.219;
20200831_171131;-1.413;2.418;11.674;-0.146;0.034;-0.058;
20200831_171131;0.553;3.979;5.157;0.027;0.038;0.168;
20200831_171131;-0.120;4.444;6.088;0.069;0.109;0.020;
20200831_171132;-0.101;4.707;14.049;-0.224;0.021;-0.050;
20200831_171132;-0.278;4.587;7.235;0.061;0.032;-0.154;
20200831_171132;-0.974;7.491;11.779;0.099;-0.025;-0.149;
20200831_171132;-0.065;5.607;9.203;-0.065;-0.020;-0.137;
20200831_171132;0.232;7.508;5.385;0.090;-0.020;-0.123;
20200831_171132;0.390;4.302;9.335;0.078;0.008;-0.147;
20200831_171132;-0.333;7.156;6.742;0.065;-0.108;-0.401;
20200831_171132;0.436;4.271;8.313;-0.061;-0.165;-0.357;
20200831_171132;0.342;3.862;10.886;-0.056;-0.176;-0.208;
20200831_171133;-1.073;3.824;7.853;-0.018;-0.118;0.104;
20200831_171133;-0.891;3.747;5.274;0.002;-0.158;0.092;
20200831_171133;0.292;5.962;8.344;-0.033;-0.109;0.148;
20200831_171133;-2.535;5.272;8.262;-0.009;-0.025;0.268;
20200831_171133;0.955;3.108;9.790;0.062;-0.164;0.200;
20200831_171133;0.666;5.339;10.908;0.027;-0.083;0.215;
20200831_171133;-0.467;5.155;7.807;-0.025;-0.073;0.353;
20200831_171133;0.596;5.203;7.642;-0.011;0.042;0.327;
20200831_171133;0.395;5.440;4.836;0.106;0.084;0.135;
20200831_171133;-0.247;6.369;7.444;0.152;0.176;0.094;
20200831_171134;-1.065;2.935;7.695;0.123;0.158;0.009;
20200831_171134;0.618;5.155;9.814;-0.043;0.091;-0.079;
20200831_171134;-0.163;6.012;9.697;-0.052;0.032;-0.073;
20200831_171134;-1.484;5.648;10.834;-0.066;0.029;0.224;
20200831_171134;-0.345;3.687;9.450;-0.054;0.031;0.044;
20200831_171134;1.501;5.461;6.033;0.041;0.017;0.097;
20200831_171134;-1.070;3.867;12.165;0.003;0.124;-0.077;
20200831_171134;-0.239;4.623;8.416;-0.056;0.028;0.004;
20200831_171134;-0.567;6.012;9.807;0.050;0.062;0.045;
20200831_171135;1.008;4.592;7.992;0.009;0.014;-0.259;
20200831_171135;3.292;5.703;-13.139;0.246;0.055;0.018;
20200831_171135;-2.710;2.710;13.709;0.254;0.029;-0.201;
20200831_171135;-1.209;-3.208;20.758;1.710;0.032;0.186;
20200831_171135;-2.255;9.893;-6.237;0.788;-0.076;0.051;
20200831_171135;-1.480;2.437;15.447;0.101;-0.030;0.356;
20200831_171135;-4.544;10.625;3.938;-0.191;-0.227;0.116;
20200831_171135;-0.728;2.610;9.708;-0.082;0.005;0.097;
20200831_171135;1.774;9.498;-2.837;-0.185;0.077;0.343;
20200831_171136;1.504;-1.566;11.353;-0.297;-0.085;-0.093;
20200831_171136;0.194;0.577;8.128;-0.019;0.075;-0.074;
20200831_171136;-0.103;6.759;8.578;0.053;0.087;-0.013;
20200831_171136;0.208;5.983;8.990;0.105;0.050;-0.257;
20200831_171136;-1.137;1.750;8.267;-0.030;-0.013;-0.261;
20200831_171136;0.017;2.926;10.561;-0.004;-0.129;-0.149;
20200831_171136;-0.977;-1.425;15.340;0.323;0.028;-0.099;
20200831_171136;-1.592;6.270;6.505;-0.087;-0.175;0.138;
20200831_171136;-0.385;7.111;10.515;-0.185;-0.070;0.246;
20200831_171136;-0.101;1.216;8.729;0.031;-0.025;0.260;
20200831_171137;-0.326;6.613;7.810;0.096;-0.028;0.133;
20200831_171137;0.022;5.739;7.697;0.227;0.161;0.211;
20200831_171137;0.328;5.059;9.744;-0.003;0.096;0.107;
20200831_171137;-0.941;4.999;6.823;-0.132;0.016;0.029;
20200831_171137;-0.831;2.725;6.057;-0.044;0.026;0.021;
20200831_171137;-2.497;3.060;20.217;-0.044;-0.070;0.100;
20200831_171137;1.365;5.461;10.985;-0.098;-0.035;0.077;
20200831_171137;1.041;0.074;14.231;0.256;0.065;0.164;
20200831_171137;1.942;-3.768;11.049;0.511;0.201;-0.118;
20200831_171137;-0.227;-3.598;8.765;0.028;0.124;-0.017;
20200831_171138;-2.071;-0.807;7.973;0.076;0.045;-0.322;
20200831_171138;0.723;10.654;11.159;0.443;0.012;-0.366;
20200831_171138;-1.367;2.430;8.892;-0.028;-0.141;-0.137;
20200831_171138;-2.083;3.146;8.025;-0.067;-0.128;0.163;
20200831_171138;-1.686;3.132;4.903;0.106;-0.052;0.337;
20200831_171138;-0.213;4.645;6.632;0.002;-0.130;0.075;
20200831_171138;-0.577;5.131;4.041;0.084;-0.121;-0.006;
20200831_171138;-0.749;0.510;9.084;-0.189;-0.171;0.342;
20200831_171138;-0.498;5.397;8.935;-0.036;0.034;0.606;
20200831_171139;-0.881;5.770;8.317;-0.140;0.101;0.563;
20200831_171139;0.661;2.344;7.920;0.058;0.183;0.657;
20200831_171139;0.031;3.103;13.645;0.041;0.174;0.311;
20200831_171139;-0.139;3.488;10.494;0.041;0.099;0.133;
20200831_171139;1.082;4.551;8.787;-0.014;0.134;0.322;
20200831_171139;0.048;2.203;8.540;-0.093;0.199;0.205;
20200831_171139;0.232;3.474;9.618;0.045;0.174;0.225;
20200831_171139;-1.465;3.100;8.600;-0.038;0.264;0.615;
20200831_171139;0.711;2.993;9.917;-0.001;0.248;0.492;
20200831_171140;0.651;5.092;7.870;0.105;0.210;0.253;
20200831_171140;0.330;5.052;8.631;-0.007;0.224;0.204;
20200831_171140;-0.661;3.589;6.383;0.013;0.194;0.154;
20200831_171140;-1.525;3.828;23.693;-0.475;0.192;0.352;
20200831_171140;0.139;4.899;8.176;-0.032;0.276;0.206;
20200831_171140;-0.244;3.306;9.400;-0.138;0.188;0.309;
20200831_171140;-0.599;3.955;8.765;-0.099;0.045;-0.156;
20200831_171140;-0.170;4.310;7.827;-0.054;-0.027;-0.168;
20200831_171140;0.871;2.612;8.454;0.062;-0.165;-0.029;
20200831_171140;2.950;2.514;5.909;-0.393;0.108;0.431;
20200831_171141;-3.704;4.685;8.169;-0.018;0.232;0.247;
20200831_171141;0.912;4.503;7.415;0.032;0.126;0.402;
20200831_171141;0.043;6.132;5.727;0.024;0.135;0.166;
20200831_171141;-0.007;5.677;8.231;-0.051;0.060;0.183;
20200831_171141;0.764;6.021;4.987;0.020;0.010;-0.149;
20200831_171141;-0.646;6.551;7.748;-0.036;-0.199;-0.463;
20200831_171141;0.606;6.450;7.463;-0.025;-0.175;0.110;
20200831_171141;1.477;3.862;9.440;-0.036;-0.016;0.173;
20200831_171141;0.670;4.243;8.818;0.060;0.090;-0.111;
20200831_171142;2.148;6.926;3.180;0.145;0.061;-0.284;
20200831_171142;0.464;2.899;13.151;-0.125;0.296;0.029;
20200831_171142;1.530;3.141;5.770;-0.214;0.119;-0.242;
20200831_171142;-4.398;7.659;5.382;0.481;-0.111;-0.859;
20200831_171142;-0.539;8.736;6.096;0.171;-0.240;-0.108;
20200831_171142;0.891;-8.241;11.684;0.109;-0.072;0.649;
20200831_171142;4.326;2.045;22.211;-1.827;-0.349;0.648;
20200831_171142;-0.031;4.305;7.264;0.138;-0.193;0.270;
20200831_171142;-3.172;2.650;7.341;-0.060;0.052;1.152;
20200831_171142;-1.652;2.909;9.424;-0.082;-0.048;0.597;
20200831_171143;1.336;5.377;8.492;-0.024;-0.031;0.470;
20200831_171143;2.267;5.265;8.140;0.025;0.057;0.276;
20200831_171143;0.053;7.355;7.259;0.046;0.032;-0.058;
20200831_171143;1.252;6.366;8.181;-0.014;0.075;0.286;
20200831_171143;4.331;3.998;7.647;0.079;0.169;-0.248;
20200831_171143;0.287;3.323;9.194;0.143;-0.071;-0.911;
20200831_171143;1.075;4.559;9.625;0.057;-0.031;0.052;
20200831_171143;-1.824;5.104;7.434;-0.016;0.179;0.866;
20200831_171143;1.796;4.405;10.020;0.048;0.410;0.842;
20200831_171144;0.227;6.773;6.931;0.024;0.352;-0.025;
20200831_171144;0.098;6.970;5.174;0.044;0.276;-0.026;
20200831_171144;-2.950;6.167;5.207;0.003;0.280;0.068;
20200831_171144;-1.932;4.623;6.835;-0.028;-0.235;-0.184;
20200831_171144;0.010;-0.596;16.635;0.408;-0.210;0.491;
20200831_171144;-11.425;-3.994;49.979;0.023;-0.024;0.517;
20200831_171144;-0.855;-9.594;15.141;0.397;0.194;0.926;
20200831_171144;1.188;2.401;3.742;-0.272;0.263;-0.437;
20200831_171144;1.061;16.525;11.485;0.081;-0.016;-1.528;
20200831_171144;-6.354;6.144;22.589;1.680;0.580;-1.396;
20200831_171145;-0.328;3.326;11.985;0.245;0.234;-0.118;
20200831_171145;0.824;0.931;14.722;-0.194;0.079;0.079;
20200831_171145;0.512;2.660;7.041;-0.025;-0.060;-0.038;
20200831_171145;0.491;4.973;7.460;0.068;0.008;0.205;
20200831_171145;-0.261;8.468;5.004;0.027;0.190;0.852;
20200831_171145;-2.540;6.771;8.835;0.058;0.257;0.624;
20200831_171145;-5.365;2.940;11.265;-0.021;-0.099;0.803;
20200831_171145;-1.647;4.355;7.489;0.205;0.164;1.691;
20200831_171145;4.013;4.137;5.289;-0.009;0.263;1.402;
20200831_171146;3.615;4.288;9.045;0.005;0.419;0.421;
20200831_171146;3.405;3.699;6.922;0.200;0.200;-0.154;
20200831_171146;2.883;5.109;5.497;0.070;0.095;-0.324;
20200831_171146;3.153;5.152;8.124;0.063;0.197;-0.149;
20200831_171146;3.393;2.562;11.025;0.178;0.402;-0.057;
20200831_171146;1.015;5.617;6.158;0.005;0.352;-0.384;
20200831_171146;-0.800;4.183;10.518;-0.094;0.227;-0.319;
20200831_171146;-0.546;6.476;5.217;-0.022;0.303;0.199;
20200831_171146;0.074;11.214;2.641;-0.033;0.269;0.069;
20200831_171146;-2.928;6.529;8.162;-0.056;0.159;0.060;
20200831_171147;-2.057;1.829;11.849;0.062;-0.047;0.023;
20200831_171147;-1.279;-2.265;14.875;0.054;0.118;0.166;
20200831_171147;-1.398;3.558;10.470;-0.068;-0.167;-0.363;
20200831_171147;1.156;3.455;9.376;0.072;-0.179;-0.372;
20200831_171147;-0.496;6.443;4.621;0.129;-0.153;-0.132;
20200831_171147;-0.275;3.936;10.669;-0.134;-0.087;0.207;
20200831_171147;-0.951;6.091;7.537;0.105;0.143;0.554;
20200831_171147;-0.074;4.219;5.997;0.047;0.148;0.125;
20200831_171147;1.458;4.460;5.452;0.037;0.046;-0.238;
20200831_171148;1.018;2.492;10.781;0.188;0.064;-0.627;
20200831_171148;-0.807;3.428;9.955;0.093;0.047;-0.214;
20200831_171148;-1.334;6.998;8.282;0.062;-0.131;-0.106;
20200831_171148;-2.435;3.886;8.574;-0.134;-0.132;0.279;
20200831_171148;-1.322;6.110;5.930;0.050;-0.003;0.477;
20200831_171148;0.606;5.926;4.678;0.106;0.053;0.173;
20200831_171148;1.769;2.713;7.628;-0.000;-0.035;-0.219;
20200831_171148;0.555;3.510;5.978;-0.114;-0.079;-0.198;
20200831_171148;-0.443;6.428;9.871;-0.061;-0.100;-0.104;
20200831_171149;-2.368;4.518;10.994;0.052;-0.006;0.281;
20200831_171149;-0.812;5.507;6.285;-0.008;0.063;0.576;
20200831_171149;-0.479;1.425;7.831;-0.052;0.195;0.393;
20200831_171149;1.650;6.527;6.196;0.136;0.204;0.068;
20200831_171149;-0.273;1.343;11.356;0.030;0.182;-0.225;
20200831_171149;-0.673;3.843;6.163;0.031;0.005;-0.266;
20200831_171149;-0.278;6.692;14.004;0.195;-0.035;-0.171;
20200831_171149;0.795;1.434;1.633;0.050;-0.006;0.152;
20200831_171149;-0.402;3.335;10.649;-0.201;-0.024;0.056;
20200831_171149;-0.278;4.685;8.741;-0.142;0.052;0.007;
20200831_171150;1.338;5.224;5.902;0.057;0.039;-0.152;
20200831_171150;0.735;0.266;10.357;0.019;0.048;-0.276;
20200831_171150;-0.711;3.824;7.652;-0.060;-0.019;-0.093;
20200831_171150;0.464;5.028;9.720;0.058;0.016;0.073;
20200831_171150;-0.915;2.823;12.263;-0.005;0.019;-0.044;
20200831_171150;-0.500;5.322;11.159;0.050;0.033;-0.050;
20200831_171150;0.215;6.017;7.154;-0.143;-0.049;-0.048;
20200831_171150;-1.166;2.169;10.860;-0.132;-0.030;0.035;
20200831_171150;-0.091;0.929;12.507;-0.014;-0.039;0.052;
20200831_171151;-0.481;5.825;5.811;0.163;-0.010;-0.108;
20200831_171151;-0.687;5.806;11.418;-0.008;-0.064;-0.053;
20200831_171151;0.452;6.172;7.958;0.023;-0.020;-0.082;
20200831_171151;-0.388;5.310;10.381;-0.038;-0.049;-0.169;
20200831_171151;-0.524;1.736;10.223;-0.009;-0.048;-0.090;
20200831_171151;-0.986;3.876;7.113;0.033;-0.049;-0.077;
20200831_171151;0.091;4.156;6.318;0.009;-0.080;0.085;
20200831_171151;0.488;2.861;8.176;-0.062;-0.022;0.102;
20200831_171151;-0.508;4.757;9.768;-0.050;0.018;-0.007;
20200831_171151;-0.464;6.706;8.717;-0.002;-0.001;0.059;
20200831_171152;-0.565;4.164;12.565;0.001;0.052;0.101;
20200831_171152;-1.264;4.164;9.244;-0.017;0.015;0.051;
20200831_171152;-0.287;2.435;8.782;0.022;0.050;-0.013;
20200831_171152;-0.271;3.816;8.162;0.036;0.003;-0.115;
20200831_171152;0.096;6.857;7.044;0.061;-0.054;-0.197;
20200831_171152;-0.347;5.169;9.632;0.086;-0.052;-0.114;
20200831_171152;-0.227;6.057;4.590;0.054;-0.049;-0.154;
20200831_171152;-1.125;5.109;7.135;0.032;-0.067;0.037;
20200831_171152;-0.275;3.673;8.279;0.040;-0.057;0.177;
20200831_171152;-0.472;6.644;8.988;0.112;0.052;0.409;
20200831_171153;0.409;3.481;8.217;-0.051;0.057;0.191;
20200831_171153;0.891;4.221;10.410;0.005;0.083;0.068;
20200831_171153;-0.828;6.634;7.058;-0.036;0.085;0.013;
20200831_171153;-0.620;2.971;7.350;-0.011;0.054;-0.087;
20200831_171153;0.601;3.144;14.564;-0.114;0.012;-0.079;
20200831_171153;-0.012;6.474;8.569;0.055;-0.044;-0.220;
20200831_171153;0.086;1.585;5.885;-0.056;-0.018;0.086;
20200831_171153;0.409;5.392;6.766;0.018;-0.005;-0.019;
20200831_171153;0.115;5.602;9.541;-0.043;-0.032;-0.064;
20200831_171154;-0.275;6.816;7.326;0.040;-0.017;0.047;
20200831_171154;-0.460;3.462;10.305;-0.109;-0.046;0.191;
20200831_171154;0.091;5.054;8.729;0.036;0.041;0.256;
20200831_171154;0.244;3.838;5.066;0.054;0.129;-0.014;
20200831_171154;0.146;7.865;11.705;-0.048;0.064;0.000;
20200831_171154;-0.093;4.741;3.960;-0.115;0.059;-0.073;
20200831_171154;0.699;6.991;11.868;0.015;0.052;-0.107;
20200831_171154;0.721;5.648;10.259;-0.283;0.003;-0.049;
20200831_171154;0.395;6.981;6.117;-0.004;-0.010;-0.100;
20200831_171154;-0.395;4.087;11.167;-0.148;-0.053;-0.209;
20200831_171155;0.917;2.591;4.161;-0.004;-0.054;-0.102;
20200831_171155;-0.491;5.334;7.070;0.025;-0.040;0.027;
20200831_171155;-0.309;4.597;9.093;0.027;0.035;0.148;
20200831_171155;-0.747;5.399;9.651;0.207;0.042;0.056;
20200831_171155;0.072;3.534;12.048;-0.058;0.095;0.040;
20200831_171155;-0.347;6.311;-0.704;0.061;0.101;-0.059;
20200831_171155;0.412;6.754;8.926;-0.093;0.012;-0.051;
20200831_171155;-0.649;5.796;4.152;0.017;0.001;-0.212;
20200831_171155;-1.982;2.823;3.603;0.069;-0.055;-0.056;
20200831_171156;0.488;6.711;9.541;-0.163;-0.110;0.034;
20200831_171156;-1.700;9.907;2.243;0.194;-0.016;-0.200;
20200831_171156;-1.223;5.945;14.226;-0.081;-0.195;-0.454;
20200831_171156;0.184;3.005;15.325;-0.108;-0.190;-0.080;
20200831_171156;0.345;4.882;3.352;-0.008;-0.025;0.271;
20200831_171156;0.692;8.109;4.080;-0.083;-0.057;-0.148;
20200831_171156;-2.892;2.708;7.056;0.050;-0.043;0.346;
20200831_171156;-0.725;2.105;14.954;0.056;0.042;0.325;
20200831_171156;0.314;0.532;19.336;0.097;0.061;0.211;
20200831_171157;-2.725;2.205;6.752;0.172;0.225;0.146;
20200831_171157;-1.111;5.957;8.832;-0.005;0.234;0.379;
20200831_171157;3.644;9.601;2.387;0.329;0.130;0.035;
20200831_171157;2.093;6.517;4.262;0.280;0.292;-0.002;
20200831_171157;1.401;4.645;6.393;0.039;0.091;-0.545;
20200831_171157;2.433;5.198;9.045;-0.032;-0.192;-0.588;
20200831_171157;1.417;1.159;10.772;-0.110;-0.237;-0.356;
20200831_171157;-0.608;4.659;9.376;-0.086;-0.184;-0.116;
20200831_171157;-0.668;4.259;6.656;0.095;-0.202;-0.044;
20200831_171157;-1.405;5.418;2.327;0.033;-0.089;0.603;
20200831_171158;0.445;3.007;3.826;-0.047;-0.117;0.448;
20200831_171158;-1.961;0.108;13.994;0.047;0.127;0.073;
20200831_171158;-3.780;3.618;8.871;-0.087;0.127;0.247;
20200831_171158;1.123;2.239;8.480;0.086;0.092;0.233;
20200831_171158;-0.055;2.820;9.294;0.102;0.092;-0.178;
20200831_171158;0.713;4.726;9.711;0.161;0.083;-0.154;
20200831_171158;1.149;5.897;6.060;0.035;0.020;-0.116;
20200831_171158;1.053;5.267;-3.103;0.345;0.148;-0.247;
20200831_171158;0.362;2.253;7.805;-0.058;-0.046;-0.172;
20200831_171159;0.620;2.667;10.613;-0.033;-0.048;0.064;
20200831_171159;-1.683;4.288;7.894;-0.059;0.002;0.189;
20200831_171159;-1.061;7.331;8.782;-0.085;0.142;0.140;
20200831_171159;-0.266;6.182;10.910;-0.112;0.042;-0.061;
20200831_171159;1.630;3.084;10.398;0.047;0.033;-0.046;
20200831_171159;-3.668;5.574;8.741;0.155;-0.024;-0.300;
20200831_171159;1.314;5.538;9.335;-0.038;0.036;0.041;
20200831_171159;1.480;7.039;1.882;0.047;0.002;-0.405;
20200831_171159;-0.998;5.559;13.190;0.005;-0.049;-0.302;
20200831_171200;-0.575;0.924;11.677;0.346;0.050;0.082;
20200831_171200;0.072;4.815;13.965;-0.172;-0.024;0.056;
20200831_171200;-2.593;6.237;12.376;0.110;0.169;-0.061;
20200831_171200;0.833;5.188;3.898;0.136;-0.039;0.238;
20200831_171200;1.784;4.872;12.495;0.133;-0.217;-0.529;
20200831_171200;-1.183;5.001;4.458;-0.036;-0.155;-0.086;
20200831_171200;-2.303;7.321;12.124;0.002;-0.398;-0.037;
20200831_171200;2.512;3.469;4.322;-0.057;-0.262;0.298;
20200831_171200;-0.081;7.259;8.586;0.002;-0.044;0.321;
20200831_171200;-0.218;3.768;4.472;-0.057;-0.019;0.173;
20200831_171201;0.397;4.822;11.281;-0.054;0.011;0.308;
20200831_171201;-0.096;4.221;12.194;-0.041;0.179;0.189;
20200831_171201;-0.462;6.481;7.262;0.123;0.129;-0.046;
20200831_171201;0.400;4.882;7.101;0.006;0.052;-0.003;
20200831_171201;0.644;5.641;8.942;-0.004;0.079;-0.105;
20200831_171201;-0.883;5.444;10.475;0.023;0.134;0.046;
20200831_171201;-1.973;4.343;16.197;0.118;0.033;-0.062;
20200831_171201;0.443;1.650;7.029;-0.091;0.011;0.052;
20200831_171201;-0.002;3.761;6.436;0.009;0.082;-0.112;
20200831_171202;0.532;5.760;3.780;-0.016;0.058;-0.021;
20200831_171202;0.278;3.409;4.618;-0.140;-0.039;-0.053;
20200831_171202;0.283;3.998;3.929;-0.032;-0.030;0.033;
20200831_171202;0.108;3.852;9.390;-0.030;-0.041;0.033;
20200831_171202;-0.378;4.990;10.408;0.087;0.022;0.262;
20200831_171202;-0.292;4.573;4.760;0.170;0.028;0.156;
20200831_171202;0.177;6.869;4.975;0.240;0.113;0.189;
20200831_171202;-0.177;1.211;8.255;-0.083;0.122;-0.008;
20200831_171202;0.807;5.940;4.482;0.037;0.134;-0.161;
20200831_171203;0.850;7.968;4.697;-0.126;0.026;-0.404;
20200831_171203;-0.481;2.976;7.470;-0.005;-0.032;-0.231;
20200831_171203;-0.740;3.187;9.663;0.114;-0.002;-0.064;
20200831_171203;-1.001;2.751;11.724;-0.064;-0.005;0.067;
20200831_171203;0.050;4.506;12.893;-0.078;-0.064;0.019;
20200831_171203;0.848;8.926;5.856;0.145;-0.104;-0.074;
20200831_171203;1.068;3.979;8.203;-0.134;-0.095;-0.074;
20200831_171203;-0.101;5.361;6.237;-0.013;0.000;-0.056;
20200831_171203;-0.821;6.931;7.441;0.105;-0.048;-0.111;
20200831_171203;0.086;2.861;12.744;-0.020;-0.078;0.089;
20200831_171204;0.340;6.747;2.794;0.195;0.065;0.248;
20200831_171204;0.385;5.679;2.282;0.155;0.119;-0.046;
20200831_171204;0.117;3.177;18.665;0.002;0.104;-0.212;
20200831_171204;0.692;5.782;9.491;0.078;0.031;-0.332;
20200831_171204;-1.381;9.457;6.467;0.228;-0.064;-0.373;
20200831_171204;-1.413;6.637;7.846;0.114;-0.186;-0.077;
20200831_171204;0.158;0.670;11.794;-0.317;-0.221;0.062;
20200831_171204;-0.967;4.858;3.505;-0.112;-0.017;0.231;
20200831_171204;-0.599;8.102;7.254;-0.037;-0.032;0.231;
20200831_171205;0.316;6.072;12.383;0.015;0.034;0.118;
20200831_171205;0.457;5.978;8.207;0.122;0.100;0.008;
20200831_171205;0.426;7.637;3.225;0.127;0.087;-0.079;
20200831_171205;-0.807;7.451;7.436;-0.065;0.015;-0.268;
20200831_171205;1.334;5.550;4.724;0.025;-0.033;-0.181;
20200831_171205;-0.352;1.211;5.823;0.057;-0.110;-0.294;
20200831_171205;-0.050;4.922;7.712;-0.025;-0.133;-0.075;
20200831_171205;-1.535;5.071;2.607;0.063;-0.111;0.159;
20200831_171205;-1.037;3.771;6.134;-0.286;-0.055;0.424;
20200831_171205;0.572;1.695;4.796;-0.131;0.042;0.129;
20200831_171206;-0.273;4.175;13.563;-0.056;0.001;0.003;
20200831_171206;1.006;5.504;6.519;0.183;0.060;-0.024;
20200831_171206;-0.555;4.408;9.787;-0.033;0.059;0.029;
20200831_171206;0.002;8.985;0.876;0.360;0.085;0.020;
20200831_171206;0.378;3.100;8.255;0.150;0.109;-0.080;
20200831_171206;-1.714;7.831;7.365;0.031;0.058;-0.193;
20200831_171206;-0.105;6.230;2.904;0.274;-0.003;0.043;
20200831_171206;0.692;3.522;13.185;0.103;0.050;0.091;
20200831_171206;0.022;5.873;7.860;0.084;0.077;0.037;
20200831_171207;-0.194;6.105;4.583;0.168;0.063;-0.090;
20200831_171207;-0.613;2.571;11.581;-0.199;-0.106;-0.198;
20200831_171207;-0.357;2.016;4.542;-0.061;-0.056;-0.058;
20200831_171207;-0.986;5.380;8.389;-0.122;-0.169;-0.063;
20200831_171207;-1.520;3.977;7.384;-0.018;-0.039;0.235;
20200831_171207;-1.379;4.494;8.645;-0.049;0.073;0.380;
20200831_171207;0.294;4.149;9.316;0.013;0.115;0.178;
20200831_171207;2.327;5.332;11.545;-0.149;0.116;-0.168;
20200831_171207;-0.644;2.210;11.310;0.192;0.197;-0.352;
20200831_171208;-1.872;5.610;7.736;-0.019;-0.036;-0.167;
20200831_171208;0.330;5.341;10.432;0.062;0.033;0.167;
20200831_171208;0.342;6.412;9.632;0.134;0.039;-0.105;
20200831_171208;-0.905;2.471;10.159;-0.103;-0.053;-0.042;
20200831_171208;0.254;2.160;4.204;-0.027;-0.028;-0.019;
20200831_171208;-0.323;4.889;8.571;0.023;-0.066;-0.122;
20200831_171208;-0.129;5.016;7.575;0.168;-0.052;-0.025;
20200831_171208;-1.185;1.269;10.398;-0.084;-0.092;0.073;
20200831_171208;-1.496;2.354;9.797;0.067;-0.066;0.104;
20200831_171209;0.951;5.169;7.053;0.123;-0.012;0.243;
20200831_171209;0.124;5.416;10.338;0.039;0.041;0.108;
20200831_171209;-0.488;6.586;4.640;0.189;0.136;0.043;
20200831_171209;-0.297;4.082;7.865;-0.033;0.032;-0.061;
20200831_171209;0.328;4.118;7.621;-0.001;0.062;-0.001;
20200831_171209;-0.347;4.925;6.507;-0.237;0.028;-0.086;
20200831_171209;0.510;1.068;10.980;0.220;0.097;-0.068;
20200831_171209;-0.486;2.152;9.776;-0.018;0.021;-0.163;
20200831_171209;-0.223;7.910;7.652;-0.034;0.003;-0.040;
20200831_171209;0.050;2.397;11.971;-0.000;-0.022;-0.117;
20200831_171210;-0.589;2.708;9.886;0.045;-0.018;-0.036;
20200831_171210;-0.852;2.758;7.341;-0.086;-0.053;-0.049;
20200831_171210;-0.740;2.895;11.071;0.015;-0.037;0.046;
20200831_171210;-0.452;6.021;3.771;0.040;-0.054;-0.040;
20200831_171210;0.376;6.874;9.074;-0.010;-0.121;-0.025;
20200831_171210;0.445;4.077;6.438;-0.140;-0.082;-0.037;
20200831_171210;-0.536;4.669;9.699;-0.086;-0.059;-0.005;
20200831_171210;-0.922;2.191;10.178;-0.016;-0.043;0.115;
20200831_171210;-0.855;0.771;18.873;-0.077;0.037;0.160;
20200831_171210;-0.426;3.163;6.991;-0.043;0.015;0.065;
20200831_171211;0.407;2.490;13.525;0.133;0.160;0.188;
20200831_171211;-0.029;4.458;10.704;-0.049;0.021;-0.213;
20200831_171211;-0.831;3.369;9.242;0.126;0.054;0.084;
20200831_171211;-0.180;4.446;15.122;0.126;0.060;0.036;
20200831_171211;-1.568;3.768;9.807;0.024;-0.001;0.037;
20200831_171211;-0.625;0.752;7.489;-0.133;0.021;0.030;
20200831_171211;-0.350;3.541;12.356;0.093;0.028;-0.107;
20200831_171211;-0.417;5.533;9.139;0.025;0.002;0.020;
20200831_171211;-0.424;4.743;8.756;-0.042;0.021;0.105;
20200831_171212;0.718;3.180;6.457;0.072;0.022;-0.061;
20200831_171212;0.690;4.487;4.561;0.057;0.060;-0.199;
20200831_171212;-0.955;9.167;1.899;0.280;0.024;-0.203;
20200831_171212;-0.622;6.515;10.843;-0.158;-0.171;-0.040;
20200831_171212;-0.575;8.882;5.521;0.217;0.041;0.150;
20200831_171212;0.223;4.216;3.428;0.126;-0.043;0.232;
20200831_171212;-0.093;8.396;11.147;0.139;0.070;0.166;
20200831_171212;-0.409;8.796;8.674;0.249;0.108;-0.106;
20200831_171212;-1.906;-1.647;24.895;-0.385;0.018;-0.123;
20200831_171213;0.637;5.241;2.373;0.005;-0.018;-0.237;
20200831_171213;-1.092;2.394;4.647;-0.216;-0.047;-0.186;
20200831_171213;-0.426;5.892;11.114;-0.120;-0.127;-0.169;
20200831_171213;-0.998;9.594;6.553;-0.035;-0.141;0.034;
20200831_171213;0.215;6.491;4.159;-0.038;-0.149;0.068;
20200831_171213;-0.342;2.782;8.545;-0.131;-0.120;0.151;
20200831_171213;-0.304;2.801;9.165;-0.195;-0.029;0.279;
20200831_171213;-0.558;5.018;11.758;-0.075;0.063;0.102;
20200831_171213;-0.517;5.997;8.847;0.097;0.144;0.073;
20200831_171213;0.682;7.415;5.449;0.021;0.110;-0.064;
20200831_171214;1.037;1.403;9.443;-0.179;0.078;-0.145;
20200831_171214;-0.065;6.242;8.782;-0.226;0.041;-0.173;
20200831_171214;0.599;8.897;5.935;0.145;-0.007;-0.172;
20200831_171214;-0.745;11.023;2.753;0.186;0.004;0.029;
20200831_171214;1.638;1.451;9.476;0.290;-0.067;-0.183;
20200831_171214;-0.577;3.776;7.446;-0.008;-0.134;-0.048;
20200831_171214;-0.443;4.255;11.712;0.224;0.000;0.133;
20200831_171214;-1.104;8.873;7.982;0.011;-0.178;0.204;
20200831_171214;0.953;3.158;5.555;-0.082;0.046;0.240;
20200831_171215;0.721;5.741;2.284;0.120;0.050;0.088;
20200831_171215;-0.642;7.731;7.848;0.148;0.079;0.115;
20200831_171215;-0.496;6.886;13.029;0.116;0.118;0.129;
20200831_171215;0.081;6.584;12.605;0.089;0.168;0.036;
20200831_171215;0.749;1.128;7.762;0.207;0.062;-0.302;
20200831_171215;-1.551;2.370;10.855;-0.073;0.151;-0.115;
20200831_171215;-0.584;5.768;7.180;-0.163;-0.022;-0.249;
20200831_171215;0.165;4.798;6.280;-0.133;-0.104;-0.139;
20200831_171215;-0.311;5.461;2.792;0.063;-0.060;-0.062;
20200831_171216;-0.170;6.914;10.166;-0.003;-0.046;-0.028;
20200831_171216;-0.405;8.559;2.394;0.085;-0.065;0.093;
20200831_171216;-0.199;3.773;11.066;-0.156;-0.145;-0.034;
20200831_171216;-0.421;2.322;8.411;-0.107;-0.063;0.122;
20200831_171216;-0.960;2.222;7.293;-0.046;-0.020;0.139;
20200831_171216;0.022;5.983;5.392;-0.075;-0.040;0.098;
20200831_171216;0.713;4.096;7.262;-0.047;0.068;0.137;
20200831_171216;-0.500;4.700;9.893;-0.015;0.054;0.008;
20200831_171216;-0.134;4.492;5.880;0.171;0.019;-0.107;
20200831_171217;-0.335;1.329;9.462;-0.095;-0.025;-0.095;
20200831_171217;0.050;5.411;8.772;-0.140;-0.013;0.047;
20200831_171217;-0.393;6.065;6.153;0.090;-0.019;0.051;
20200831_171217;0.077;4.446;8.878;-0.025;-0.005;0.114;
20200831_171217;-1.092;4.345;13.242;-0.138;-0.003;0.108;
20200831_171217;-0.323;3.821;5.806;-0.057;0.012;0.104;
20200831_171217;0.144;4.441;10.149;-0.134;-0.020;0.005;
20200831_171217;0.010;5.447;9.242;0.102;0.080;0.039;
20200831_171217;-0.905;4.446;11.542;-0.100;0.067;-0.071;
20200831_171217;0.089;3.117;6.404;0.007;0.086;-0.064;
20200831_171218;-0.584;2.909;11.349;-0.131;0.020;-0.115;
20200831_171218;0.014;5.250;8.935;0.057;0.004;-0.089;
20200831_171218;-0.041;7.187;7.130;-0.067;0.017;-0.121;
20200831_171218;-0.242;3.996;7.992;-0.047;-0.038;-0.184;
20200831_171218;-0.400;3.156;9.086;0.095;-0.011;-0.061;
20200831_171218;-0.476;1.707;9.151;-0.129;-0.051;-0.040;
20200831_171218;-0.577;5.021;10.202;-0.156;-0.056;0.011;
20200831_171218;0.247;6.819;7.029;-0.138;-0.047;-0.016;
20200831_171218;-0.922;4.295;12.280;0.151;0.022;-0.008;
20200831_171219;-0.699;1.221;8.997;0.020;0.006;-0.044;
20200831_171219;1.384;7.568;4.994;0.104;-0.049;-0.084;
20200831_171219;-0.405;3.792;8.801;0.002;-0.035;-0.065;
20200831_171219;0.184;5.313;9.637;-0.132;-0.109;-0.091;
20200831_171219;0.328;5.871;7.592;-0.108;-0.096;0.027;
20200831_171219;-1.245;5.349;12.737;0.037;-0.021;0.116;
20200831_171219;0.218;4.604;10.104;0.022;-0.073;-0.069;
20200831_171219;0.237;6.378;8.045;0.242;-0.031;-0.044;
20200831_171219;-0.436;5.732;8.119;-0.064;-0.122;-0.026;
20200831_171219;-1.010;4.357;12.826;-0.090;-0.033;0.090;
20200831_171220;-0.034;3.366;8.600;0.198;-0.001;0.029;
20200831_171220;-0.745;6.160;13.558;-0.090;-0.046;0.133;
20200831_171220;-1.111;1.446;9.969;0.074;0.054;0.179;
20200831_171220;-0.220;6.402;6.697;0.220;0.049;0.238;
20200831_171220;-0.067;4.286;10.956;-0.162;0.013;0.080;
20200831_171220;-0.634;2.277;8.396;0.002;0.128;0.195;
20200831_171220;0.603;3.338;7.072;0.040;0.112;0.144;
20200831_171220;1.379;4.760;6.634;0.148;0.041;-0.308;
20200831_171220;0.249;2.251;8.068;0.049;0.055;-0.153;
20200831_171221;-0.187;7.099;6.218;-0.022;-0.063;-0.221;
20200831_171221;-0.417;3.809;8.863;0.147;-0.068;-0.081;
20200831_171221;-0.543;5.061;6.618;0.073;-0.093;0.055;
20200831_171221;-0.421;2.298;11.885;0.148;-0.076;0.189;
20200831_171221;0.338;5.064;9.369;-0.157;-0.110;0.140;
20200831_171221;-0.467;0.352;9.912;0.119;0.005;0.309;
20200831_171221;-0.862;2.507;10.166;0.044;0.063;0.360;
20200831_171221;0.048;7.118;6.881;0.084;0.171;0.443;
20200831_171221;1.111;1.566;8.959;0.033;0.160;0.274;
20200831_171222;0.850;3.733;6.416;0.013;0.163;0.040;
20200831_171222;-0.419;1.791;8.964;-0.014;0.167;-0.148;
20200831_171222;-1.085;4.137;6.776;-0.087;0.153;-0.088;
20200831_171222;0.496;2.557;10.065;-0.105;0.076;-0.209;
20200831_171222;-0.079;2.100;7.221;-0.078;0.043;-0.284;
20200831_171222;-0.438;6.632;5.219;0.275;0.088;-0.226;
20200831_171222;-0.132;6.076;4.606;0.047;0.048;-0.232;
20200831_171222;-1.468;2.476;6.919;-0.034;-0.022;-0.234;
20200831_171222;-0.831;4.345;9.069;0.023;-0.128;-0.209;
20200831_171222;0.019;3.893;8.162;-0.005;-0.056;-0.203;
20200831_171223;-1.350;3.642;7.173;-0.033;0.000;-0.074;
20200831_171223;-0.587;3.340;9.120;-0.109;-0.021;-0.038;
20200831_171223;-0.874;3.146;10.137;-0.155;0.035;-0.046;
20200831_171223;0.599;4.879;8.090;0.112;0.022;-0.307;
20200831_171223;0.481;2.437;9.579;0.024;-0.002;-0.515;
20200831_171223;-0.297;3.476;12.452;0.006;-0.069;-0.635;
20200831_171223;-0.934;3.572;7.803;0.127;-0.086;-0.613;
20200831_171223;0.845;3.658;10.197;0.130;-0.174;-0.882;
20200831_171223;-0.582;3.333;9.060;0.198;-0.201;-1.018;
20200831_171224;-0.400;3.598;9.912;0.226;-0.299;-1.157;
20200831_171224;-0.302;2.993;9.708;0.286;-0.394;-1.113;
20200831_171224;-2.030;3.266;8.985;0.262;-0.338;-0.861;
20200831_171224;-1.927;5.684;9.091;0.349;-0.386;-0.535;
20200831_171224;-1.786;3.084;9.275;0.209;-0.316;-0.371;
20200831_171224;-1.865;3.567;7.415;0.172;-0.276;-0.197;
20200831_171224;-0.702;3.761;8.009;0.120;-0.329;-0.211;
20200831_171224;-0.579;3.967;9.019;0.118;-0.285;-0.295;
20200831_171224;-1.434;4.171;9.546;0.068;-0.249;-0.144;
20200831_171225;-2.758;4.968;8.428;0.139;-0.147;0.265;
20200831_171225;-1.257;3.553;8.746;0.005;-0.074;0.516;
20200831_171225;-0.608;4.049;7.721;-0.008;-0.036;0.523;
20200831_171225;0.101;5.224;8.485;0.027;-0.071;0.157;
20200831_171225;0.247;4.594;6.574;0.042;-0.068;-0.204;
20200831_171225;-1.180;4.688;8.904;0.027;-0.059;-0.200;
20200831_171225;-1.046;4.738;8.487;0.029;-0.076;-0.088;
20200831_171225;-0.702;4.446;9.345;-0.000;-0.048;0.088;
20200831_171225;-0.953;4.377;8.437;-0.010;-0.003;0.148;
20200831_171225;0.211;3.974;8.291;-0.015;-0.034;0.052;
20200831_171226;-0.194;4.990;8.325;0.001;-0.014;-0.081;
20200831_171226;-0.067;4.875;8.212;-0.008;-0.022;-0.073;
20200831_171226;-0.778;4.803;7.707;-0.005;0.003;-0.062;
20200831_171226;-0.618;5.009;9.301;-0.034;-0.022;-0.075;
20200831_171226;0.194;4.468;8.650;-0.002;-0.030;-0.181;
20200831_171226;0.294;4.281;8.447;0.023;-0.074;-0.331;
20200831_171226;-0.508;4.147;9.594;-0.033;-0.115;-0.395;
20200831_171226;-0.883;4.470;8.772;0.005;-0.127;-0.237;
20200831_171226;-1.051;4.506;8.593;0.020;-0.109;-0.046;
20200831_171227;-0.749;3.407;9.203;-0.011;-0.069;0.242;
20200831_171227;-0.304;4.465;9.287;-0.093;-0.002;0.356;
20200831_171227;-0.567;4.487;8.736;-0.061;0.044;0.274;
20200831_171227;0.467;3.627;10.341;-0.080;0.037;0.107;
20200831_171227;-0.192;4.752;8.614;-0.004;0.066;0.027;
20200831_171227;-0.316;3.915;9.134;0.052;0.061;-0.061;
20200831_171227;0.591;3.393;9.797;0.020;0.006;-0.269;
20200831_171227;0.771;4.604;8.217;0.034;-0.040;-0.570;
20200831_171227;-0.278;4.508;9.340;0.039;-0.103;-0.716;
20200831_171227;-0.077;4.094;8.203;0.076;-0.216;-0.938;
20200831_171228;-0.989;3.824;9.917;0.033;-0.253;-0.748;
20200831_171228;-1.161;3.175;9.100;0.050;-0.234;-0.412;
20200831_171228;-1.877;3.436;10.549;0.049;-0.203;0.113;
20200831_171228;-0.414;3.977;8.509;0.037;-0.143;0.315;
20200831_171228;-1.650;3.991;8.794;-0.012;-0.027;0.518;
20200831_171228;-1.243;3.895;9.196;-0.034;0.042;0.632;
20200831_171228;-0.060;4.010;8.995;-0.034;0.020;0.314;
20200831_171228;-0.151;4.800;7.348;0.071;0.014;0.047;
20200831_171228;-0.062;4.228;8.528;0.020;0.002;-0.010;
20200831_171228;0.057;3.874;10.388;0.064;-0.017;-0.093;
20200831_171229;-0.196;3.895;11.064;0.008;0.017;0.059;
20200831_171229;-0.378;3.915;9.215;-0.034;0.012;0.013;
20200831_171229;0.062;3.950;7.286;-0.015;-0.012;-0.046;
20200831_171229;-1.355;2.591;8.193;0.024;-0.011;-0.097;
20200831_171229;-0.742;4.063;8.641;-0.031;-0.062;-0.032;
20200831_171229;0.299;3.912;10.137;-0.013;-0.021;0.066;
20200831_171229;-1.243;3.651;9.491;-0.084;0.064;0.256;
20200831_171229;-0.910;3.048;8.727;-0.107;0.080;0.420;
20200831_171229;-2.284;4.448;5.971;-0.148;0.228;0.846;
20200831_171230;2.387;0.991;11.782;-0.166;0.286;1.182;
20200831_171230;0.984;3.570;9.821;0.061;-0.101;-0.651;
20200831_171230;1.257;4.226;8.107;0.029;-0.016;0.014;
20200831_171230;0.053;2.605;8.875;0.066;0.173;0.297;
20200831_171230;-1.346;6.783;5.143;0.120;0.200;0.673;
20200831_171230;-2.354;5.037;6.938;-0.015;0.291;1.613;
20200831_171230;-1.302;3.215;7.041;-0.004;0.598;2.366;
20200831_171230;1.647;5.059;8.617;-0.019;0.425;1.510;
20200831_171230;0.397;5.499;8.248;-0.076;0.239;0.448;
20200831_171230;2.425;4.068;8.473;-0.034;0.226;0.212;
20200831_171231;2.059;5.784;7.111;-0.036;-0.019;-0.840;
20200831_171231;-1.798;6.716;7.568;-0.113;0.059;0.396;
20200831_171231;1.571;4.120;6.718;0.105;0.140;0.902;
20200831_171231;0.373;4.843;9.589;0.172;0.176;0.659;
20200831_171231;-0.795;7.058;8.748;0.229;0.294;0.639;
20200831_171231;-2.346;-1.712;7.829;0.358;0.359;0.688;
20200831_171231;0.740;5.794;-2.899;0.530;0.384;1.339;
20200831_171231;-2.586;5.088;17.552;0.441;0.165;1.005;
20200831_171231;1.652;6.194;7.207;0.433;0.083;-0.420;
20200831_171232;3.306;6.115;6.888;0.466;-0.020;-0.802;
20200831_171232;-3.570;11.073;8.662;0.459;0.013;-0.449;
20200831_171232;0.194;4.436;9.603;-0.196;-0.166;0.317;
20200831_171232;-0.168;5.102;7.755;-0.038;0.131;0.607;
20200831_171232;-0.441;7.637;9.254;0.051;0.263;0.817;
20200831_171232;1.568;4.255;8.844;0.084;0.310;0.719;
20200831_171232;2.665;2.847;9.898;0.046;0.498;0.591;
20200831_171232;-0.117;6.285;7.836;0.152;0.567;0.215;
20200831_171232;1.769;3.718;6.682;0.139;0.387;-0.630;
20200831_171233;0.129;4.350;6.582;0.136;0.240;-1.082;
20200831_171233;0.019;4.389;16.728;0.178;0.049;-1.309;
20200831_171233;-1.537;5.725;-0.781;0.069;-0.066;-0.949;
20200831_171233;-2.124;5.796;8.320;-0.162;-0.088;-0.252;
20200831_171233;-1.602;4.774;9.347;-0.091;-0.021;-0.050;
20200831_171233;1.343;0.958;5.358;0.149;-0.002;-0.196;
20200831_171233;0.575;5.466;1.827;0.168;-0.108;-0.857;
20200831_171233;0.378;4.810;10.271;0.069;-0.144;-1.308;
20200831_171233;-2.133;6.208;8.320;0.121;-0.192;-0.994;
20200831_171233;-2.840;3.668;5.681;0.165;-0.109;-0.154;
20200831_171234;1.657;5.538;5.897;0.251;-0.065;-0.439;
20200831_171234;1.185;0.771;13.786;0.070;-0.072;-0.797;
20200831_171234;3.230;4.044;1.346;1.080;-0.134;-0.898;
20200831_171234;-2.061;-0.785;16.142;0.387;-0.125;-0.710;
20200831_171234;-1.226;4.843;10.132;1.364;-0.155;-1.391;
20200831_171234;-6.062;17.372;0.235;0.863;-0.482;-1.107;
20200831_171234;-3.658;2.523;2.423;0.606;-0.251;-0.894;
20200831_171234;0.280;0.634;8.159;0.073;-0.609;-0.574;
20200831_171234;-3.005;6.258;11.902;-0.075;-0.740;-0.760;
20200831_171235;0.622;5.952;4.324;0.510;-0.667;-0.545;
20200831_171235;-3.151;5.382;9.723;0.319;-0.565;0.011;
20200831_171235;-0.373;5.784;6.692;-0.089;-0.494;0.181;
20200831_171235;-1.460;3.809;14.097;0.072;-0.368;-0.061;
20200831_171235;0.093;3.857;5.246;0.147;-0.388;-0.127;
20200831_171235;-1.946;8.092;0.036;-0.015;-0.209;0.082;
20200831_171235;-1.188;5.186;0.302;0.143;-0.143;0.304;
20200831_171235;-3.048;10.901;6.833;-0.424;-0.241;0.284;
20200831_171235;-0.132;3.632;10.391;-0.089;-0.081;0.053;
20200831_171236;-1.456;-2.993;11.703;-0.371;-0.128;0.030;
20200831_171236;0.251;7.484;9.579;-0.145;-0.168;0.019;
20200831_171236;-0.496;3.405;16.352;-0.016;-0.227;-0.145;
20200831_171236;-1.336;7.144;12.000;0.024;-0.149;0.241;
20200831_171236;0.812;7.836;7.860;0.052;-0.183;-0.010;
20200831_171236;0.515;4.187;5.947;0.103;-0.034;0.392;
20200831_171236;-0.570;3.129;9.752;-0.105;-0.056;0.376;
20200831_171236;0.007;9.170;14.028;0.237;0.028;0.413;
20200831_171236;0.124;5.559;7.439;0.298;0.152;0.355;
20200831_171236;1.674;8.758;8.150;-0.061;0.159;0.133;
20200831_171237;-0.323;2.361;12.014;-0.011;0.209;-0.041;
20200831_171237;-0.536;5.200;10.523;0.064;0.193;-0.103;
20200831_171237;0.845;7.681;-4.999;0.345;0.181;-0.119;
20200831_171237;-1.815;-1.317;21.105;-0.572;-0.048;-0.251;
20200831_171237;0.196;-2.076;10.125;-0.155;-0.007;-0.245;
20200831_171237;1.154;11.770;4.717;0.228;0.018;0.149;
20200831_171237;-0.934;4.436;12.124;-0.165;-0.046;-0.172;
20200831_171237;0.005;6.993;4.659;0.155;0.087;0.076;
20200831_171237;-1.642;0.795;11.061;0.200;0.107;-0.081;
20200831_171238;-0.527;1.975;15.560;-0.092;0.012;-0.038;
20200831_171238;0.302;2.488;6.721;0.134;0.090;-0.095;
20200831_171238;-0.139;7.147;12.407;-0.051;-0.019;-0.276;
20200831_171238;0.330;2.667;12.763;0.011;-0.092;-0.358;
20200831_171238;-1.307;6.996;7.429;0.152;0.037;0.320;
20200831_171238;-0.455;2.897;12.057;0.040;-0.034;0.012;
20200831_171238;0.575;0.520;12.859;0.125;0.110;0.056;
20200831_171238;-0.129;4.843;7.396;-0.019;0.033;-0.226;
20200831_171238;-1.128;5.660;-9.397;0.443;0.084;-0.122;
20200831_171238;-0.632;1.180;18.737;0.234;-0.003;-0.162;
20200831_171239;-0.419;0.769;9.558;-0.143;-0.223;-0.150;
20200831_171239;-2.320;6.203;12.622;0.016;-0.152;-0.080;
20200831_171239;2.136;9.014;9.649;0.216;-0.085;0.353;
20200831_171239;-0.026;9.139;10.669;0.112;-0.218;0.151;
20200831_171239;-3.108;-1.970;11.516;0.015;0.036;0.082;
20200831_171239;0.699;8.935;2.538;-0.020;-0.132;0.149;
20200831_171239;1.267;5.923;5.545;-0.214;0.078;0.060;
20200831_171239;1.908;0.244;9.055;-0.234;-0.132;-0.163;
20200831_171239;-1.231;5.571;8.952;-0.027;0.046;-0.084;
20200831_171240;-2.406;7.515;12.050;0.202;0.092;-0.101;
20200831_171240;2.691;3.668;-2.916;0.099;0.147;-0.020;
20200831_171240;-1.465;-1.513;11.940;-0.110;0.148;-0.212;
20200831_171240;-0.936;9.055;10.274;0.007;-0.073;-0.154;
20200831_171240;-0.381;3.342;4.532;0.177;0.042;-0.178;
20200831_171240;-1.812;4.954;15.953;-0.131;-0.081;-0.322;
20200831_171240;0.433;2.143;10.123;-0.048;-0.109;-0.108;
20200831_171240;0.273;2.684;1.772;0.231;-0.041;-0.106;
20200831_171240;-2.083;6.809;8.610;0.148;-0.032;0.064;
20200831_171240;0.754;4.211;7.412;0.074;-0.125;-0.078;
20200831_171241;-1.887;4.149;12.754;-0.295;-0.072;0.184;
20200831_171241;-0.402;2.236;4.049;0.073;-0.004;0.046;
20200831_171241;0.069;4.671;9.996;0.038;0.045;-0.019;
20200831_171241;1.279;5.423;8.349;-0.085;-0.044;-0.306;
20200831_171241;-1.020;5.715;8.471;0.089;-0.041;-0.269;
20200831_171241;-0.431;5.775;2.035;0.135;-0.187;-0.382;
20200831_171241;-1.077;7.508;11.540;0.022;-0.240;-0.034;
20200831_171241;0.057;4.286;11.030;0.105;-0.159;0.066;
20200831_171241;0.359;3.354;2.787;-0.017;-0.326;-0.015;
20200831_171242;-0.919;3.407;6.457;-0.083;-0.359;0.176;
20200831_171242;-5.016;3.242;-2.138;-0.049;-0.418;0.419;
20200831_171242;0.120;2.962;7.819;-0.064;-0.221;1.098;
20200831_171242;-1.937;6.924;5.358;-0.091;-0.067;1.058;
20200831_171242;0.919;2.672;7.365;-0.035;-0.071;0.823;
20200831_171242;-0.101;5.262;18.658;0.247;0.111;0.702;
20200831_171242;0.486;5.258;6.136;0.188;0.108;0.575;
20200831_171242;-0.532;16.331;-1.499;0.225;0.159;0.796;
20200831_171242;-0.287;-3.280;17.492;0.319;0.291;0.839;
20200831_171243;1.504;7.690;17.351;-0.264;0.067;0.661;
20200831_171243;1.267;-0.816;26.142;-0.002;0.263;0.455;
20200831_171243;-0.464;4.432;8.473;0.110;0.302;0.412;
20200831_171243;-0.077;-2.868;18.653;0.203;0.289;0.472;
20200831_171243;0.306;2.507;6.033;0.076;0.186;0.466;
20200831_171243;-0.010;-0.670;6.223;-0.425;0.221;0.418;
20200831_171243;-1.379;6.754;8.624;0.128;0.387;0.529;
20200831_171243;-0.318;-0.512;20.207;0.308;0.416;0.494;
20200831_171243;0.601;-4.116;17.226;-0.168;0.178;0.285;
20200831_171243;1.666;-4.532;10.130;0.058;0.296;0.135;
20200831_171244;-2.045;10.903;10.348;0.287;0.488;0.428;
20200831_171244;1.520;3.711;3.742;-0.304;0.215;0.260;
20200831_171244;-0.158;-1.968;11.571;0.046;0.460;0.208;
20200831_171244;2.014;-2.698;10.405;0.125;0.547;-0.021;
20200831_171244;0.469;1.202;12.972;0.102;0.592;-0.309;
20200831_171244;0.970;4.422;20.265;-0.053;0.408;-0.675;
20200831_171244;0.567;2.303;1.930;0.210;0.344;-0.689;
20200831_171244;2.030;-1.709;3.565;0.036;0.183;-0.837;
20200831_171244;-0.060;3.036;5.215;0.002;0.035;-0.592;
20200831_171245;-0.874;4.942;5.021;0.137;-0.049;-0.460;
20200831_171245;-0.069;2.921;3.898;0.305;-0.036;-0.393;
20200831_171245;-1.106;8.406;4.032;0.475;-0.005;-0.448;
20200831_171245;0.175;4.214;0.974;-0.078;-0.231;-0.426;
20200831_171245;0.833;-1.468;13.530;0.015;-0.321;-0.312;
20200831_171245;0.196;12.558;1.346;0.395;-0.161;-0.316;
20200831_171245;-2.533;15.629;10.458;0.197;-0.226;-0.208;
20200831_171245;-0.637;3.519;11.609;0.120;-0.192;-0.193;
20200831_171245;-1.063;3.955;11.150;-0.044;-0.299;-0.297;
20200831_171245;-1.970;0.510;17.547;0.277;-0.175;-0.218;
20200831_171246;-0.409;2.315;12.845;0.039;-0.197;-0.097;
20200831_171246;0.124;2.411;3.919;0.327;-0.280;-0.231;
20200831_171246;-1.563;5.583;13.398;0.426;-0.244;-0.215;
20200831_171246;-1.798;1.243;11.485;0.134;-0.394;-0.180;
20200831_171246;-6.912;-8.885;17.968;1.014;-0.278;0.156;
20200831_171246;-3.017;4.307;12.208;0.120;-0.416;0.197;
20200831_171246;-4.310;10.099;13.317;0.280;-0.324;0.531;
20200831_171246;-1.264;4.939;4.915;0.066;-0.324;0.508;
20200831_171246;-1.219;6.294;7.573;-0.025;-0.162;0.648;
20200831_171247;-0.613;6.998;10.523;0.100;-0.050;0.729;
20200831_171247;0.199;5.363;8.119;0.078;0.052;0.435;
