Timestamp;Accel_x;Accel_y;Accel_z;Gyro_x;Gyro_y;Gyro_z;
20200920_182640;0.163;4.760;8.140;0.001;-0.006;0.012;
20200920_182640;0.163;4.726;8.313;-0.001;0.006;0.017;
20200920_182640;0.170;4.724;8.265;-0.001;0.005;0.013;
20200920_182640;0.199;4.731;8.298;-0.002;0.002;0.005;
20200920_182640;0.189;4.719;8.274;-0.000;-0.001;-0.009;
20200920_182640;0.136;4.709;8.284;-0.001;-0.000;-0.006;
20200920_182640;0.113;4.745;8.279;-0.001;0.006;0.009;
20200920_182641;0.144;4.738;8.286;-0.001;-0.000;0.013;
20200920_182641;0.204;4.714;8.303;-0.000;-0.003;0.006;
20200920_182641;0.172;4.721;8.286;-0.000;-0.002;-0.001;
20200920_182641;0.115;4.745;8.294;-0.000;0.003;0.005;
20200920_182641;0.187;4.726;8.325;-0.001;0.001;0.013;
20200920_182641;0.239;4.712;8.325;-0.001;0.005;0.017;
20200920_182641;0.754;4.726;8.358;-0.001;0.018;0.030;
20200920_182641;0.314;4.875;8.203;-0.001;0.164;0.144;
20200920_182641;0.634;4.628;8.447;0.008;0.280;0.283;
20200920_182642;-0.247;4.520;8.260;0.015;0.323;0.280;
20200920_182642;-1.688;5.061;9.170;0.020;0.280;0.277;
20200920_182642;-0.941;5.318;8.356;0.047;0.251;0.259;
20200920_182642;-0.747;4.966;7.903;0.016;0.089;-0.029;
20200920_182642;-1.087;5.143;8.080;0.014;0.076;0.005;
20200920_182642;-0.579;4.714;8.291;-0.003;0.062;0.092;
20200920_182642;-0.426;4.523;8.380;-0.016;0.009;0.001;
20200920_182642;0.608;4.590;8.164;0.001;-0.012;-0.036;
20200920_182642;-2.401;5.435;8.425;0.019;0.007;-0.243;
20200920_182643;-0.625;4.879;7.252;-0.030;-0.062;-0.142;
20200920_182643;-0.400;5.047;7.513;-0.026;-0.038;0.094;
20200920_182643;-1.233;4.152;9.586;-0.007;-0.110;-0.016;
20200920_182643;0.218;5.016;6.742;-0.059;-0.000;-0.015;
20200920_182643;-1.331;6.507;7.752;0.015;0.045;-0.004;
20200920_182643;-0.299;5.444;7.666;-0.011;-0.011;-0.084;
20200920_182643;-0.369;7.029;7.374;-0.010;-0.001;-0.195;
20200920_182643;-1.310;7.149;6.402;-0.030;0.012;-0.154;
20200920_182643;-1.087;6.883;6.819;-0.051;-0.105;-0.236;
20200920_182643;1.161;6.555;7.652;-0.071;-0.175;-0.405;
20200920_182644;-1.120;7.228;6.744;-0.013;-0.082;-0.411;
20200920_182644;-3.156;5.306;7.302;0.023;-0.251;-0.355;
20200920_182644;0.800;2.437;9.685;0.121;-0.309;-0.222;
20200920_182644;-0.481;1.549;9.237;-0.003;-0.138;-0.002;
20200920_182644;-2.167;2.370;9.376;0.018;-0.115;-0.075;
20200920_182644;4.334;6.280;8.966;-0.027;-0.275;-0.421;
20200920_182644;-1.882;6.852;4.611;0.017;-0.194;0.039;
20200920_182644;-0.390;5.289;7.420;-0.030;-0.063;0.489;
20200920_182644;-0.029;5.432;9.184;-0.043;0.001;0.314;
20200920_182644;-0.093;5.150;9.785;-0.020;0.039;0.410;
20200920_182645;1.264;4.307;5.717;0.048;0.068;0.261;
20200920_182645;0.199;6.184;7.161;0.039;-0.006;-0.286;
20200920_182645;0.962;6.036;9.115;0.023;-0.096;-0.481;
20200920_182645;0.323;7.051;7.702;0.084;-0.109;-0.491;
20200920_182645;0.187;4.245;8.981;0.049;-0.061;-0.126;
20200920_182645;0.101;4.499;9.038;0.145;-0.088;-0.077;
20200920_182645;-2.274;5.466;8.169;0.075;0.008;0.293;
20200920_182645;-0.876;4.930;9.100;0.021;0.052;0.657;
20200920_182645;1.312;5.284;5.933;-0.034;0.050;0.418;
20200920_182646;-0.007;4.542;8.169;-0.043;0.192;0.323;
20200920_182646;0.017;5.612;8.485;-0.026;0.190;0.362;
20200920_182646;1.379;5.071;8.792;-0.005;0.262;0.012;
20200920_182646;1.171;4.547;9.340;-0.014;0.163;-0.616;
20200920_182646;-0.804;5.377;11.633;-0.004;-0.072;-0.931;
20200920_182646;0.464;4.999;8.531;0.073;-0.226;-0.875;
20200920_182646;-2.083;5.394;7.920;0.094;-0.256;-0.363;
20200920_182646;-0.709;6.756;8.581;0.057;-0.219;0.031;
20200920_182646;0.919;7.511;-4.355;0.130;-0.215;-0.014;
20200920_182647;-0.436;4.822;10.281;-0.003;-0.172;0.092;
20200920_182647;-1.532;6.665;8.162;0.079;-0.124;0.287;
20200920_182647;0.685;4.255;6.342;-0.002;-0.101;0.261;
20200920_182647;0.000;4.535;7.123;-0.052;-0.048;0.148;
20200920_182647;-0.239;4.171;9.507;-0.029;-0.062;0.137;
20200920_182647;-1.001;5.823;8.942;-0.026;-0.008;0.245;
20200920_182647;0.792;7.041;7.477;0.046;0.023;0.453;
20200920_182647;0.455;3.847;10.851;-0.048;0.181;0.405;
20200920_182647;-0.352;5.021;11.839;0.006;0.248;0.157;
20200920_182647;-0.144;3.500;7.513;-0.009;0.200;0.036;
20200920_182648;0.855;5.942;7.616;0.065;0.101;-0.222;
20200920_182648;0.709;5.119;8.973;-0.061;0.062;-0.290;
20200920_182648;0.330;7.144;-3.091;0.207;-0.028;-0.252;
20200920_182648;-0.725;4.714;7.341;-0.011;0.038;-0.200;
20200920_182648;-0.781;4.944;11.435;-0.150;0.009;-0.092;
20200920_182648;0.955;5.066;7.582;-0.178;-0.029;-0.191;
20200920_182648;0.441;5.176;7.925;0.117;-0.068;-0.406;
20200920_182648;-0.448;4.544;9.524;0.055;-0.059;-0.166;
20200920_182648;-0.213;2.770;15.507;-0.087;-0.129;-0.177;
20200920_182649;-0.855;8.329;0.120;0.211;-0.083;-0.055;
20200920_182649;0.345;4.750;15.004;-0.050;-0.161;0.116;
20200920_182649;-1.590;1.784;6.771;-0.053;-0.062;0.229;
20200920_182649;0.232;6.747;10.676;0.047;0.078;0.402;
20200920_182649;-1.006;4.415;7.839;0.093;0.078;0.232;
20200920_182649;2.349;4.707;12.239;0.043;0.010;-0.010;
20200920_182649;-0.651;4.985;10.180;-0.050;-0.007;-0.117;
20200920_182649;-0.034;4.144;10.999;-0.060;-0.068;-0.155;
20200920_182649;-0.699;2.701;19.111;-0.087;-0.015;0.089;
20200920_182649;0.036;3.306;7.891;-0.088;0.036;0.279;
20200920_182650;1.128;4.997;8.444;0.118;-0.001;-0.079;
20200920_182650;-0.431;2.591;9.464;-0.105;0.061;-0.055;
20200920_182650;0.395;5.078;7.087;0.051;-0.044;-0.020;
20200920_182650;0.974;3.024;7.946;0.064;0.024;-0.008;
20200920_182650;0.716;6.536;6.275;0.005;0.026;-0.148;
20200920_182650;0.012;7.132;2.528;0.018;-0.004;-0.208;
20200920_182650;-2.155;6.689;2.351;0.306;0.041;0.098;
20200920_182650;1.408;6.024;7.183;0.038;-0.018;-0.042;
20200920_182650;-0.091;5.574;11.717;0.235;-0.029;0.096;
20200920_182651;-0.369;2.234;8.143;0.026;0.021;0.074;
20200920_182651;1.736;3.208;2.828;0.173;0.047;0.187;
20200920_182651;-0.893;-0.103;22.149;0.087;0.132;0.166;
20200920_182651;-0.103;6.354;11.267;0.285;0.130;-0.330;
20200920_182651;0.855;6.764;8.107;0.022;-0.068;-0.701;
20200920_182651;-1.085;3.002;8.351;-0.107;-0.144;-0.584;
20200920_182651;0.311;3.979;8.155;0.072;-0.316;-0.421;
20200920_182651;0.026;6.732;7.728;0.052;-0.323;0.103;
20200920_182651;-2.624;5.200;4.480;0.021;-0.190;0.590;
20200920_182652;-0.594;6.072;4.717;-0.000;0.068;1.122;
20200920_182652;0.496;1.875;7.640;-0.062;0.167;0.466;
20200920_182652;0.792;5.669;11.073;0.119;0.162;0.180;
20200920_182652;0.309;6.404;11.195;-0.046;0.150;-0.209;
20200920_182652;0.079;9.694;5.866;-0.098;0.040;-0.239;
20200920_182652;0.572;3.663;8.753;-0.125;0.104;-0.069;
20200920_182652;-0.699;6.984;8.480;0.016;-0.076;-0.205;
20200920_182652;-0.781;6.349;12.507;0.056;0.036;0.155;
20200920_182652;-0.323;3.677;10.865;0.044;0.029;0.047;
20200920_182652;0.508;5.799;2.849;0.061;0.040;0.037;
20200920_182653;-0.079;5.045;10.022;-0.070;0.087;0.134;
20200920_182653;0.405;6.807;6.879;0.005;0.016;-0.131;
20200920_182653;-1.199;3.610;9.584;0.016;0.012;0.031;
20200920_182653;-0.567;5.507;13.283;-0.029;-0.036;-0.036;
20200920_182653;-0.141;7.570;11.016;-0.161;-0.000;0.058;
20200920_182653;-0.948;6.292;5.911;-0.022;0.034;0.252;
20200920_182653;0.991;0.862;5.435;-0.068;0.038;0.125;
20200920_182653;0.263;4.262;9.883;-0.088;0.045;0.030;
20200920_182653;0.622;7.626;8.052;0.005;0.035;-0.125;
20200920_182654;0.251;4.657;10.654;0.064;0.090;0.043;
20200920_182654;-0.903;2.885;10.484;0.093;0.092;-0.057;
20200920_182654;1.312;3.491;13.558;-0.065;0.035;-0.000;
20200920_182654;-1.106;5.890;2.279;0.063;0.118;0.076;
20200920_182654;0.747;4.405;11.121;-0.161;0.095;0.046;
20200920_182654;0.036;6.764;9.510;-0.018;0.144;-0.077;
20200920_182654;-0.912;3.970;8.916;0.130;0.061;-0.237;
20200920_182654;1.046;4.614;1.693;0.414;-0.009;-0.359;
20200920_182654;-0.213;5.926;7.961;0.152;-0.033;-0.447;
20200920_182654;0.747;8.262;1.535;0.098;-0.194;-0.449;
20200920_182655;-0.496;5.569;10.889;-0.022;-0.142;-0.400;
20200920_182655;0.187;6.206;1.848;0.170;-0.231;-0.112;
20200920_182655;-0.977;7.532;8.871;0.089;-0.148;0.070;
20200920_182655;-1.243;5.626;6.029;0.217;-0.142;0.115;
20200920_182655;-0.658;8.195;6.053;0.003;-0.047;0.186;
20200920_182655;-0.515;3.493;4.441;-0.146;-0.041;0.007;
20200920_182655;1.405;2.847;12.859;-0.231;-0.062;0.004;
20200920_182655;-0.227;6.503;6.630;-0.033;-0.057;-0.008;
20200920_182655;0.287;1.865;14.722;-0.154;-0.146;-0.241;
20200920_182656;-0.965;4.908;1.915;-0.116;-0.106;-0.017;
20200920_182656;-0.469;4.836;4.769;-0.049;-0.111;0.050;
20200920_182656;2.385;4.836;10.195;0.022;-0.117;-0.236;
20200920_182656;-0.005;5.758;10.451;0.056;-0.255;-0.164;
20200920_182656;0.115;2.231;7.776;-0.102;-0.173;0.274;
20200920_182656;0.189;6.361;7.142;0.027;-0.191;0.393;
20200920_182656;0.057;5.186;7.360;-0.049;-0.045;0.646;
20200920_182656;-0.989;2.715;14.547;0.001;0.164;0.820;
20200920_182656;2.009;6.721;2.512;0.266;0.143;0.296;
20200920_182656;1.341;3.816;6.883;0.191;0.230;0.134;
20200920_182657;0.589;4.106;8.624;0.017;0.196;0.043;
20200920_182657;-0.508;2.241;7.728;-0.054;0.204;0.247;
20200920_182657;-1.760;4.171;13.685;-0.030;0.213;0.237;
20200920_182657;0.833;4.372;9.675;0.014;0.197;0.198;
20200920_182657;0.855;3.117;11.126;-0.054;0.281;0.086;
20200920_182657;0.778;6.610;7.623;0.114;0.193;-0.279;
20200920_182657;-0.038;1.231;9.572;0.049;0.190;-0.300;
20200920_182657;0.256;3.189;7.278;0.010;0.129;-0.180;
20200920_182657;0.474;5.040;6.563;0.042;0.105;-0.249;
20200920_182658;0.318;6.972;8.212;-0.075;0.086;-0.262;
20200920_182658;0.086;2.488;11.914;-0.097;0.032;-0.395;
20200920_182658;0.479;3.575;6.328;0.031;-0.055;-0.375;
20200920_182658;-0.165;4.611;13.156;0.247;-0.087;-0.389;
20200920_182658;0.041;3.445;8.686;-0.086;-0.149;-0.339;
20200920_182658;-0.553;2.148;14.308;-0.014;-0.158;-0.265;
20200920_182658;0.215;5.456;9.002;0.075;-0.265;-0.325;
20200920_182658;-1.087;3.270;12.723;0.165;-0.192;-0.036;
20200920_182658;-0.215;3.505;6.718;0.060;-0.203;0.113;
20200920_182659;-0.618;5.045;9.285;0.049;-0.114;0.148;
20200920_182659;1.030;6.251;7.846;-0.019;-0.101;0.075;
20200920_182659;0.223;4.436;9.251;-0.030;-0.081;-0.053;
20200920_182659;-0.603;7.951;8.588;0.109;-0.097;-0.216;
20200920_182659;-0.534;5.191;10.048;0.040;-0.148;-0.125;
20200920_182659;0.345;4.839;5.095;0.030;-0.173;-0.132;
20200920_182659;0.498;4.403;9.495;-0.049;-0.193;0.016;
20200920_182659;-0.757;5.006;13.149;-0.040;-0.148;0.183;
20200920_182659;-0.931;5.179;6.886;0.038;-0.096;0.382;
20200920_182659;-0.675;3.203;7.803;-0.006;-0.014;0.491;
20200920_182700;-0.462;2.447;4.724;0.036;0.076;0.503;
20200920_182700;-0.362;4.329;9.826;0.080;0.171;0.480;
20200920_182700;0.350;2.198;6.237;-0.035;0.226;0.263;
20200920_182700;1.010;9.045;4.662;-0.099;0.260;0.071;
20200920_182700;1.274;6.163;2.047;0.127;0.230;-0.358;
20200920_182700;-0.189;3.038;11.643;0.142;0.154;-0.262;
20200920_182700;0.539;0.218;7.992;-0.221;-0.096;-0.523;
20200920_182700;-0.014;5.576;6.867;0.153;-0.223;-0.498;
20200920_182700;-0.761;0.168;25.874;-0.140;-0.125;-0.146;
20200920_182701;1.607;8.499;2.025;-0.012;-0.189;0.127;
20200920_182701;1.729;3.237;6.936;-0.120;-0.121;0.332;
20200920_182701;0.182;2.375;4.068;-0.209;-0.063;0.401;
20200920_182701;1.384;4.578;9.503;0.004;0.025;0.462;
20200920_182701;0.115;4.223;9.986;0.080;0.030;0.352;
20200920_182701;2.061;-0.330;6.668;0.196;0.298;0.279;
20200920_182701;-2.538;2.370;19.848;-0.154;0.235;-0.197;
20200920_182701;1.312;5.171;6.055;0.006;0.210;0.141;
20200920_182701;1.614;5.986;6.170;0.117;0.187;-0.137;
20200920_182701;2.909;6.862;5.538;-0.137;0.069;-0.610;
20200920_182702;-0.445;4.010;2.844;0.056;0.059;-0.452;
20200920_182702;-2.255;5.162;10.762;0.107;-0.042;-0.241;
20200920_182702;1.846;4.281;7.345;0.033;-0.111;-0.442;
20200920_182702;-0.634;6.524;7.027;0.101;-0.088;-0.337;
20200920_182702;-0.237;4.468;9.110;-0.005;-0.140;-0.189;
20200920_182702;0.034;6.586;3.321;0.143;-0.177;-0.177;
20200920_182702;-3.287;7.053;6.558;0.099;-0.100;-0.159;
20200920_182702;-1.657;5.746;9.108;0.019;-0.179;0.022;
20200920_182702;-0.436;3.661;6.244;-0.065;-0.162;0.178;
20200920_182703;-0.251;3.342;5.911;-0.053;-0.130;0.038;
20200920_182703;1.293;3.689;9.479;0.053;-0.131;0.169;
20200920_182703;0.520;3.852;7.489;-0.020;-0.130;0.112;
20200920_182703;1.714;6.347;10.235;-0.032;-0.028;0.181;
20200920_182703;-1.355;4.183;2.753;0.031;0.108;0.443;
20200920_182703;2.444;6.977;6.864;0.024;0.111;0.356;
20200920_182703;0.445;3.658;17.023;-0.087;0.063;-0.232;
20200920_182703;-0.754;3.225;6.230;-0.040;0.119;-0.173;
20200920_182703;0.910;8.145;7.087;0.075;0.087;0.008;
20200920_182704;0.194;5.248;9.000;0.157;0.108;0.014;
20200920_182704;0.010;7.582;-2.354;0.124;0.095;-0.236;
20200920_182704;-1.039;7.240;9.380;0.087;0.002;0.079;
20200920_182704;-0.515;14.037;-0.005;-0.175;-0.347;-0.366;
20200920_182704;2.808;4.077;14.195;0.201;-0.104;0.461;
20200920_182704;-2.184;3.979;5.373;0.061;-0.173;-0.088;
20200920_182704;-1.075;5.011;15.342;0.111;-0.063;0.705;
20200920_182704;0.409;1.678;5.813;-0.048;0.089;0.652;
20200920_182704;-0.551;6.692;10.027;0.035;0.198;0.665;
20200920_182704;0.759;6.196;8.169;0.142;0.383;0.476;
20200920_182705;0.424;7.168;6.189;0.048;0.367;0.125;
20200920_182705;1.899;3.646;3.503;0.095;0.337;-0.283;
20200920_182705;1.176;3.903;10.455;0.019;0.244;-0.612;
20200920_182705;0.287;3.840;9.335;-0.076;0.099;-0.744;
20200920_182705;0.352;5.370;10.587;-0.020;-0.024;-0.765;
20200920_182705;-0.773;4.156;8.775;0.048;-0.177;-0.787;
20200920_182705;-1.676;4.635;5.658;0.130;-0.305;-0.445;
20200920_182705;-2.863;5.183;4.549;0.233;-0.296;-0.085;
20200920_182705;-2.124;5.076;6.665;0.116;-0.316;0.024;
20200920_182706;-0.455;6.043;7.163;0.028;-0.285;0.370;
20200920_182706;-2.322;3.955;8.327;-0.032;-0.057;0.639;
20200920_182706;0.898;3.558;10.970;-0.133;0.071;0.539;
20200920_182706;1.432;5.191;8.267;0.010;0.161;0.196;
20200920_182706;1.444;2.219;8.205;-0.025;0.173;-0.162;
20200920_182706;1.077;3.141;6.912;0.014;0.136;-0.469;
20200920_182706;-0.077;4.369;8.710;0.066;0.102;-0.456;
20200920_182706;-0.893;3.508;9.321;0.021;0.012;-0.450;
20200920_182706;0.491;5.318;6.852;0.097;-0.088;-0.647;
20200920_182706;-0.326;5.009;8.885;0.070;-0.143;-0.566;
20200920_182707;-1.178;4.784;8.423;-0.009;-0.238;-0.445;
20200920_182707;-0.792;5.667;11.430;-0.009;-0.322;-0.291;
20200920_182707;-0.766;5.308;7.875;0.073;-0.362;-0.206;
20200920_182707;-0.606;6.431;6.704;0.001;-0.268;0.264;
20200920_182707;0.345;5.138;9.625;-0.018;-0.134;0.267;
20200920_182707;0.086;5.088;8.449;-0.020;-0.067;0.135;
20200920_182707;1.130;4.956;9.239;-0.088;-0.046;0.012;
20200920_182707;-0.153;5.801;7.132;-0.014;-0.011;0.055;
20200920_182707;1.192;5.784;10.424;-0.017;-0.009;-0.014;
20200920_182708;0.778;3.706;9.184;-0.037;0.014;-0.160;
20200920_182708;0.804;4.513;9.807;0.089;-0.088;-0.255;
20200920_182708;-0.115;5.025;9.436;-0.167;-0.113;-0.308;
20200920_182708;-1.247;4.183;6.682;0.089;-0.095;0.186;
20200920_182708;0.081;3.986;5.114;-0.036;-0.035;0.276;
20200920_182708;0.309;6.026;8.909;-0.017;0.111;0.206;
20200920_182708;1.080;6.223;-0.687;-0.003;0.119;0.007;
20200920_182708;-0.766;10.130;11.763;-0.040;0.118;-0.142;
20200920_182708;0.182;1.451;14.734;-0.120;0.108;-0.294;
20200920_182709;1.539;2.600;12.002;-0.066;0.017;-0.416;
20200920_182709;2.942;4.944;1.944;0.080;0.127;-0.626;
20200920_182709;-0.510;4.573;7.305;-0.113;-0.129;-0.597;
20200920_182709;-0.081;5.909;3.766;0.110;-0.078;-0.150;
20200920_182709;-0.129;3.431;10.183;0.076;-0.105;-0.324;
20200920_182709;0.151;6.014;9.649;0.094;-0.042;-0.377;
20200920_182709;-0.769;4.980;9.656;-0.078;-0.069;-0.465;
20200920_182709;-0.532;3.792;10.681;-0.025;-0.068;-0.220;
20200920_182709;0.721;4.460;8.906;0.006;-0.123;-0.326;
20200920_182709;-1.506;5.401;16.175;0.141;-0.008;-0.442;
20200920_182710;1.468;3.438;7.784;0.105;-0.095;-0.414;
20200920_182710;0.141;3.560;14.739;0.021;-0.172;-0.751;
20200920_182710;0.512;3.857;15.139;0.016;-0.286;-0.800;
20200920_182710;-0.668;7.484;5.873;0.414;-0.400;-0.858;
20200920_182710;-0.268;2.136;10.039;0.202;-0.342;-0.578;
20200920_182710;-0.424;5.847;8.784;0.086;-0.483;-0.466;
20200920_182710;-0.043;4.144;27.057;-0.232;-0.790;-0.641;
20200920_182710;-2.334;2.423;2.638;0.326;-0.382;-0.092;
20200920_182710;-0.215;9.330;10.647;0.222;-0.304;0.835;
20200920_182711;-2.885;2.265;12.045;-0.209;-0.123;0.464;
20200920_182711;-0.716;4.434;10.891;-0.110;0.152;0.665;
20200920_182711;3.723;7.389;-0.429;0.175;0.022;-0.045;
20200920_182711;0.962;2.526;4.216;0.047;0.164;0.052;
20200920_182711;1.949;4.594;8.128;0.008;0.063;-0.453;
20200920_182711;4.113;3.713;0.122;0.097;0.180;-0.498;
20200920_182711;-0.848;7.647;13.657;0.168;0.296;-0.698;
20200920_182711;-0.189;9.270;5.564;0.217;0.036;-0.712;
20200920_182711;0.153;8.504;8.234;0.261;-0.116;-0.689;
20200920_182712;-0.014;-1.159;18.739;0.119;-0.156;-0.398;
20200920_182712;-2.289;4.719;9.816;0.128;-0.077;-0.336;
20200920_182712;-0.939;12.914;13.115;0.293;-0.350;-0.300;
20200920_182712;-3.282;6.467;6.127;-0.112;-0.220;-0.297;
20200920_182712;-1.092;6.680;10.523;0.092;-0.301;0.012;
20200920_182712;2.227;9.874;8.990;-0.199;-0.321;0.067;
20200920_182712;1.099;7.736;8.940;0.203;-0.268;-0.191;
20200920_182712;-0.306;6.234;7.848;0.053;-0.197;-0.102;
20200920_182712;0.414;6.531;10.941;-0.080;-0.200;-0.023;
20200920_182712;-3.053;6.737;3.390;0.167;-0.238;0.152;
20200920_182713;1.381;2.203;1.836;0.415;-0.204;0.634;
20200920_182713;1.185;2.835;10.187;0.027;-0.121;0.353;
20200920_182713;-1.719;7.472;5.844;-0.214;-0.055;0.368;
20200920_182713;-1.413;6.936;8.782;-0.103;0.104;0.561;
20200920_182713;0.060;2.425;12.761;-0.007;0.074;0.398;
20200920_182713;3.038;0.845;4.171;0.116;0.237;0.245;
20200920_182713;2.526;7.621;7.051;0.053;0.037;-0.580;
20200920_182713;1.889;4.779;12.931;0.021;0.061;-0.574;
20200920_182713;-0.124;6.337;3.642;0.305;-0.063;-0.419;
20200920_182714;-0.589;5.935;7.851;-0.039;0.032;0.020;
20200920_182714;-1.295;4.264;6.936;-0.025;0.010;0.076;
20200920_182714;-0.840;5.916;6.302;0.128;-0.018;0.192;
20200920_182714;0.867;4.288;12.677;-0.109;0.004;0.076;
20200920_182714;0.429;7.697;11.559;-0.026;0.053;-0.045;
20200920_182714;0.431;4.034;7.712;0.057;-0.040;-0.314;
20200920_182714;0.235;1.118;17.430;-0.143;-0.077;-0.015;
20200920_182714;0.915;0.828;-0.055;-0.037;-0.150;0.034;
20200920_182714;-1.448;3.958;10.740;0.047;-0.087;0.194;
20200920_182714;-0.072;6.158;11.401;-0.064;-0.011;0.315;
20200920_182715;1.851;5.318;4.719;-0.012;0.109;0.163;
20200920_182715;-0.764;5.250;5.667;0.046;0.123;-0.149;
20200920_182715;1.298;7.654;13.455;-0.025;0.058;-0.118;
20200920_182715;-0.376;4.367;9.076;-0.052;0.053;-0.196;
20200920_182715;-0.395;2.660;3.160;-0.063;-0.034;-0.285;
20200920_182715;-2.002;2.368;8.995;-0.067;-0.094;0.006;
20200920_182715;0.831;6.318;11.734;-0.096;-0.076;0.192;
20200920_182715;0.711;2.559;4.906;0.096;-0.127;-0.072;
20200920_182715;-0.285;7.468;6.653;0.209;-0.069;0.107;
20200920_182716;1.389;2.540;9.953;0.045;-0.106;0.285;
20200920_182716;-3.141;2.758;31.407;0.130;0.074;0.153;
20200920_182716;1.451;3.519;7.307;0.045;0.026;-0.023;
20200920_182716;0.670;2.239;3.290;0.132;0.096;0.114;
20200920_182716;0.862;6.814;14.432;-0.015;0.084;0.001;
20200920_182716;-0.069;5.873;9.811;-0.010;0.178;-0.096;
20200920_182716;-1.061;8.978;9.740;0.054;0.030;-0.313;
20200920_182716;-1.549;4.209;9.191;0.045;-0.112;0.005;
20200920_182716;-1.022;1.949;10.554;-0.022;-0.007;0.054;
20200920_182717;0.273;7.637;8.023;0.144;0.008;0.047;
20200920_182717;1.132;3.218;11.131;-0.050;-0.093;-0.113;
20200920_182717;-0.852;0.163;10.367;-0.043;-0.019;0.016;
20200920_182717;0.682;5.250;7.731;-0.034;-0.094;-0.050;
20200920_182717;2.059;4.417;13.084;-0.164;-0.001;-0.145;
20200920_182717;-0.546;5.452;10.183;-0.022;-0.053;-0.063;
20200920_182717;1.015;5.090;12.031;-0.131;-0.045;0.010;
20200920_182717;-1.207;-0.091;19.187;0.073;-0.001;0.180;
20200920_182717;0.122;2.473;7.858;0.020;0.099;0.206;
20200920_182717;0.089;3.938;12.706;-0.035;0.099;0.053;
20200920_182718;-0.055;2.957;8.638;-0.066;0.104;-0.226;
20200920_182718;3.309;5.521;0.673;0.236;-0.015;-0.205;
20200920_182718;-0.067;5.775;11.947;0.057;-0.032;-0.324;
20200920_182718;1.257;5.040;3.527;-0.061;-0.169;-0.129;
20200920_182718;-0.733;5.054;8.080;-0.000;-0.142;-0.235;
20200920_182718;-0.134;6.981;7.068;-0.003;-0.128;-0.172;
20200920_182718;-1.683;4.460;7.551;-0.154;-0.142;0.035;
20200920_182718;-1.178;2.002;10.173;0.134;-0.074;0.319;
20200920_182718;0.752;7.458;2.203;0.100;-0.033;0.040;
20200920_182719;1.166;7.463;6.713;0.008;-0.078;-0.061;
20200920_182719;0.089;7.161;6.108;0.109;-0.043;-0.037;
20200920_182719;1.355;-2.610;6.127;0.006;-0.035;-0.092;
20200920_182719;0.385;3.646;5.452;0.047;-0.007;0.023;
20200920_182719;-1.676;4.527;12.304;-0.225;0.004;0.034;
20200920_182719;-0.711;4.544;11.636;-0.119;0.013;-0.049;
20200920_182719;4.125;11.349;-1.245;-0.145;-0.089;-0.219;
20200920_182719;-2.270;8.619;7.791;0.337;-0.066;-0.179;
20200920_182719;-3.747;6.328;8.928;0.227;-0.151;-0.159;
20200920_182719;-2.119;2.076;11.509;-0.101;-0.239;0.399;
20200920_182720;0.939;7.875;7.966;0.092;-0.139;0.463;
20200920_182720;-1.362;2.852;11.152;0.254;0.035;0.747;
20200920_182720;-1.415;5.993;13.374;-0.014;0.129;0.465;
20200920_182720;0.005;-0.860;8.930;-0.064;0.069;0.282;
20200920_182720;-1.171;11.298;6.962;0.197;0.180;0.445;
20200920_182720;0.642;0.553;14.006;-0.076;0.208;0.415;
20200920_182720;1.786;7.230;2.567;-0.019;0.362;0.184;
20200920_182720;1.781;9.448;3.213;0.095;0.270;-0.424;
20200920_182720;1.520;5.329;11.823;0.072;0.073;-0.704;
20200920_182721;1.202;6.232;12.184;-0.044;0.031;-0.577;
20200920_182721;-3.062;3.824;6.206;0.034;-0.033;-0.207;
20200920_182721;-0.627;6.122;4.434;0.195;-0.222;-0.094;
20200920_182721;-2.509;1.571;23.106;-0.243;-0.128;0.040;
20200920_182721;-1.116;1.961;14.308;-0.322;-0.113;0.384;
20200920_182721;0.067;20.889;-18.450;1.170;0.032;0.198;
20200920_182721;-0.232;6.218;13.022;-0.071;-0.053;0.391;
20200920_182721;0.893;28.757;3.220;0.273;0.131;0.290;
20200920_182721;5.373;-2.488;11.097;-0.313;0.073;0.683;
20200920_182722;-1.566;7.274;6.665;0.189;0.301;0.239;
20200920_182722;0.915;5.681;4.262;-0.160;0.154;-0.238;
20200920_182722;2.392;1.741;28.817;-0.095;0.034;-0.436;
20200920_182722;0.294;-1.013;45.466;-0.221;-0.064;-0.498;
20200920_182722;-3.053;18.067;1.341;0.640;-0.262;-0.394;
20200920_182722;-1.935;5.892;15.220;0.713;-0.218;-0.105;
20200920_182722;-2.456;3.955;6.843;-0.112;-0.257;0.384;
20200920_182722;-1.516;7.276;4.228;0.072;-0.196;0.821;
20200920_182722;1.231;5.715;6.488;0.076;0.043;0.846;
20200920_182722;2.231;2.528;9.685;-0.040;0.270;0.478;
20200920_182723;2.624;4.357;8.246;-0.103;0.253;-0.488;
20200920_182723;0.582;4.752;8.866;-0.027;0.188;-0.489;
20200920_182723;0.515;6.055;8.246;0.277;0.076;-0.254;
20200920_182723;0.266;5.521;11.698;-0.054;-0.011;-0.035;
20200920_182723;0.510;5.916;7.611;-0.141;0.089;0.188;
20200920_182723;-1.128;8.490;5.660;0.190;0.169;0.176;
20200920_182723;0.081;4.061;11.349;0.222;0.068;-0.100;
20200920_182723;-1.128;4.185;7.745;0.083;0.169;-0.010;
20200920_182723;-0.895;6.057;8.533;-0.033;0.020;-0.142;
20200920_182724;1.504;3.371;7.508;-0.031;0.036;-0.196;
20200920_182724;1.132;4.468;9.546;-0.018;-0.226;-0.730;
20200920_182724;-1.417;4.669;8.988;-0.020;-0.193;-0.269;
20200920_182724;-2.588;5.780;6.749;0.014;-0.241;0.261;
20200920_182724;-0.991;5.160;6.716;0.036;-0.166;0.564;
20200920_182724;0.134;3.038;11.100;-0.087;0.054;0.472;
20200920_182724;-0.462;5.301;8.377;-0.061;0.118;0.285;
20200920_182724;-0.153;4.618;10.795;0.030;0.026;0.001;
20200920_182724;0.352;4.166;7.807;0.031;0.059;-0.025;
20200920_182724;-0.967;4.341;9.041;0.020;0.026;-0.101;
20200920_182725;1.405;5.904;6.991;0.045;0.007;-0.016;
20200920_182725;1.681;4.939;9.680;-0.038;-0.031;-0.210;
20200920_182725;-1.695;4.065;8.509;-0.049;0.025;0.096;
20200920_182725;0.096;6.462;6.804;-0.015;0.083;0.286;
20200920_182725;0.129;4.463;8.483;-0.017;0.122;0.042;
20200920_182725;-0.328;6.314;9.838;-0.004;0.088;0.032;
20200920_182725;-0.591;4.439;10.058;0.019;0.102;0.021;
20200920_182725;0.180;4.506;8.729;0.028;0.005;-0.160;
20200920_182725;0.448;5.174;6.706;-0.005;-0.026;-0.111;
20200920_182726;0.472;3.575;10.503;-0.039;-0.053;-0.045;
20200920_182726;-0.441;4.968;9.579;-0.026;-0.052;-0.115;
20200920_182726;0.000;4.695;8.581;0.046;-0.059;-0.118;
20200920_182726;-1.812;4.583;8.452;0.094;0.021;0.203;
20200920_182726;0.376;4.934;9.929;0.050;0.070;0.296;
20200920_182726;1.120;5.847;4.752;0.021;0.107;-0.037;
20200920_182726;-0.718;5.126;7.424;-0.130;0.061;-0.159;
20200920_182726;-0.879;4.334;6.783;-0.028;-0.044;-0.151;
20200920_182726;-0.263;8.780;10.951;-0.081;-0.105;-0.036;
20200920_182727;-0.093;5.452;6.139;-0.033;-0.089;0.125;
20200920_182727;-0.373;5.918;9.404;0.073;0.056;0.076;
20200920_182727;0.031;4.436;8.294;-0.071;-0.002;-0.081;
20200920_182727;-0.371;5.380;9.934;-0.018;0.062;0.038;
20200920_182727;-0.115;6.002;0.474;-0.038;0.016;0.156;
20200920_182727;4.065;4.384;8.373;0.049;-0.089;0.205;
20200920_182727;-1.391;6.673;7.477;-0.240;0.024;-0.091;
20200920_182727;0.761;0.826;8.617;0.059;-0.096;0.052;
20200920_182727;0.974;4.597;10.355;-0.045;-0.156;-0.081;
20200920_182727;1.171;4.324;10.527;-0.019;-0.117;-0.112;
20200920_182728;-0.103;4.693;8.418;-0.040;-0.046;0.017;
20200920_182728;1.176;3.613;9.158;0.038;0.019;0.148;
20200920_182728;-0.153;5.464;8.600;0.017;0.006;-0.085;
20200920_182728;0.493;4.252;8.669;0.001;-0.035;0.014;
20200920_182728;-1.022;5.016;7.566;0.014;-0.034;0.099;
20200920_182728;-1.216;5.169;9.067;0.002;0.068;0.330;
20200920_182728;0.718;4.070;8.437;-0.011;0.096;0.229;
20200920_182728;1.341;4.788;7.963;-0.002;0.085;-0.098;
20200920_182728;-0.888;5.557;8.174;0.001;0.155;-0.095;
20200920_182729;1.647;4.527;8.622;-0.019;0.022;-0.403;
20200920_182729;0.924;5.780;7.381;0.007;-0.004;-0.296;
20200920_182729;0.608;4.968;8.236;0.056;-0.100;-0.231;
20200920_182729;-0.584;3.692;8.174;0.128;-0.078;-0.002;
20200920_182729;-1.101;6.582;13.046;-0.178;0.004;0.204;
20200920_182729;-0.766;4.841;5.871;0.078;-0.024;0.061;
20200920_182729;0.769;4.650;5.559;0.152;-0.000;0.172;
20200920_182729;0.364;3.615;13.625;-0.058;-0.105;-0.333;
20200920_182729;-1.041;5.042;6.098;0.072;-0.118;0.092;
20200920_182729;1.377;2.861;7.602;-0.047;-0.150;0.192;
20200920_182730;-0.144;5.353;7.807;0.030;0.005;0.328;
20200920_182730;0.366;3.649;9.141;-0.047;0.078;0.088;
20200920_182730;0.524;4.805;7.661;-0.056;0.133;0.007;
20200920_182730;0.249;3.687;8.803;-0.005;0.108;0.015;
20200920_182730;0.019;4.894;9.618;0.036;0.101;-0.093;
20200920_182730;-0.903;4.700;9.074;-0.028;0.050;-0.142;
20200920_182730;-1.535;3.677;8.543;-0.023;0.036;-0.079;
20200920_182730;1.324;5.023;8.964;0.008;-0.057;-0.069;
20200920_182730;-0.611;4.341;7.834;0.057;-0.050;-0.171;
20200920_182731;-0.199;4.901;8.152;0.039;-0.065;-0.012;
20200920_182731;-0.302;4.946;8.478;0.031;-0.046;0.003;
20200920_182731;0.491;5.667;8.313;0.015;-0.001;-0.048;
20200920_182731;-1.075;3.630;9.002;0.049;0.012;-0.087;
20200920_182731;-0.457;4.949;7.836;0.076;-0.031;0.107;
20200920_182731;0.745;5.035;10.058;-0.012;-0.040;0.055;
20200920_182731;-0.666;3.160;8.847;-0.085;0.031;0.100;
20200920_182731;0.285;4.858;7.163;-0.048;-0.063;-0.029;
20200920_182731;-0.577;5.073;7.958;-0.016;-0.007;-0.007;
20200920_182731;1.468;5.073;8.904;0.012;-0.025;0.047;
20200920_182732;0.235;4.630;7.956;-0.007;0.035;-0.064;
20200920_182732;-0.010;5.543;8.748;-0.012;-0.015;-0.104;
20200920_182732;-0.697;4.384;7.980;0.016;-0.009;-0.017;
20200920_182732;0.991;5.121;8.890;0.035;-0.038;0.116;
20200920_182732;-0.218;4.290;8.291;-0.016;-0.026;0.092;
20200920_182732;0.129;5.456;8.727;0.031;-0.020;0.194;
20200920_182732;-1.168;4.812;8.384;0.026;0.045;0.107;
20200920_182732;1.245;4.788;8.456;0.027;0.051;0.131;
20200920_182732;0.390;5.365;6.792;-0.001;0.088;0.128;
20200920_182733;0.328;4.985;8.370;-0.013;0.135;0.052;
20200920_182733;1.334;4.477;8.940;-0.072;0.125;-0.230;
20200920_182733;1.113;4.520;7.058;0.023;0.083;-0.320;
20200920_182733;-0.189;5.157;8.013;0.064;0.006;-0.335;
20200920_182733;-0.096;4.618;7.635;0.057;-0.073;-0.151;
20200920_182733;-1.027;5.377;7.532;0.018;-0.081;-0.085;
20200920_182733;-0.620;4.403;7.642;-0.035;-0.058;0.179;
20200920_182733;-0.120;3.666;7.855;-0.062;-0.071;0.172;
20200920_182733;0.651;5.861;9.857;0.081;0.046;0.075;
20200920_182734;-0.067;4.628;6.761;0.076;0.009;-0.187;
20200920_182734;0.237;4.489;7.420;0.088;-0.002;-0.231;
20200920_182734;1.279;3.443;9.256;-0.026;-0.125;-0.231;
20200920_182734;-0.230;4.355;9.795;-0.026;-0.041;-0.108;
20200920_182734;0.146;3.776;8.619;0.038;-0.114;0.089;
20200920_182734;-0.376;4.669;9.342;-0.005;-0.049;0.087;
20200920_182734;-0.338;5.622;6.591;0.053;-0.046;0.059;
20200920_182734;-0.450;4.851;8.930;0.017;-0.020;0.031;
20200920_182734;-0.151;3.484;10.566;-0.086;-0.027;0.162;
20200920_182734;-0.654;5.653;8.200;-0.001;0.047;0.216;
20200920_182735;0.666;4.353;8.775;0.036;0.010;-0.049;
20200920_182735;0.163;4.664;8.080;-0.053;0.022;-0.117;
20200920_182735;1.724;4.429;7.384;0.014;-0.042;-0.032;
20200920_182735;-1.063;4.381;9.474;0.042;0.026;-0.032;
20200920_182735;-0.287;4.887;8.981;0.045;0.073;0.156;
20200920_182735;0.570;4.089;8.155;-0.025;0.067;0.081;
20200920_182735;0.840;3.637;8.665;-0.022;0.039;-0.026;
20200920_182735;-0.294;4.944;9.471;-0.019;-0.045;-0.243;
20200920_182735;-0.077;4.413;9.199;0.028;-0.059;0.002;
20200920_182735;-2.425;4.616;7.719;0.010;-0.076;0.104;
20200920_182736;1.343;5.531;8.844;0.005;-0.094;0.185;
20200920_182736;0.371;4.580;9.129;-0.063;-0.006;0.136;
20200920_182736;0.038;4.556;8.689;-0.091;0.023;0.094;
20200920_182736;-1.120;5.018;6.467;-0.039;0.076;0.076;
20200920_182736;-0.017;4.750;6.879;-0.005;0.080;0.208;
20200920_182736;-0.773;5.136;7.094;-0.002;0.152;0.073;
20200920_182736;-0.103;4.235;10.199;-0.012;0.104;0.012;
20200920_182736;1.561;4.353;7.314;0.034;-0.004;-0.243;
20200920_182736;-0.163;4.240;8.018;0.012;0.047;-0.180;
20200920_182737;-0.800;4.915;8.921;-0.033;-0.058;-0.190;
20200920_182737;0.271;5.483;7.800;0.035;-0.009;0.065;
20200920_182737;1.487;3.505;7.659;0.011;-0.061;-0.056;
20200920_182737;-0.110;3.395;8.981;-0.045;0.005;0.068;
20200920_182737;0.110;5.037;7.609;-0.028;0.024;0.038;
20200920_182737;-0.783;5.227;10.094;-0.061;0.047;0.043;
20200920_182737;-0.876;4.958;8.128;-0.034;0.063;0.042;
20200920_182737;0.445;4.927;7.072;0.023;0.039;-0.006;
20200920_182737;0.189;4.846;8.337;-0.000;-0.022;-0.105;
20200920_182737;-0.668;5.923;7.463;0.003;-0.008;-0.035;
20200920_182738;0.527;5.272;9.251;0.008;-0.007;0.038;
20200920_182738;0.860;3.287;4.903;0.099;0.014;-0.071;
20200920_182738;1.808;4.087;9.515;-0.037;-0.047;-0.081;
20200920_182738;0.314;5.006;8.327;-0.011;-0.056;-0.066;
20200920_182738;0.206;5.643;8.396;0.081;0.021;0.078;
20200920_182738;0.496;5.160;8.880;0.032;-0.000;-0.063;
20200920_182738;-1.324;4.889;9.644;-0.019;0.025;0.086;
20200920_182738;0.754;5.236;8.095;-0.044;-0.088;0.022;
20200920_182738;-0.639;4.489;9.242;-0.048;-0.046;0.066;
20200920_182739;0.340;4.654;7.274;0.002;-0.042;0.066;
20200920_182739;0.026;5.432;10.171;-0.039;0.020;0.076;
20200920_182739;0.321;5.291;9.524;0.026;0.056;0.059;
20200920_182739;1.199;4.688;8.169;0.043;-0.016;-0.104;
20200920_182739;-0.711;4.401;8.437;0.010;0.072;0.031;
20200920_182739;-0.869;5.092;9.110;-0.033;0.049;0.041;
20200920_182739;-0.316;4.561;8.729;-0.014;0.065;0.100;
20200920_182739;0.496;4.216;9.002;-0.015;0.059;-0.053;
20200920_182739;0.383;4.465;8.150;0.002;0.053;-0.241;
20200920_182739;0.567;4.214;8.076;0.030;-0.029;-0.254;
20200920_182740;-0.931;5.116;7.970;0.002;-0.087;-0.097;
20200920_182740;0.354;4.800;8.813;-0.031;-0.089;0.097;
20200920_182740;0.409;4.532;8.468;-0.000;-0.050;-0.003;
20200920_182740;-0.606;6.148;8.456;0.063;0.022;0.001;
20200920_182740;-0.017;5.116;7.870;-0.015;-0.012;0.001;
20200920_182740;-0.476;3.615;9.562;-0.058;-0.065;0.010;
20200920_182740;0.122;4.887;8.334;-0.030;-0.088;0.043;
20200920_182740;0.673;3.840;7.657;0.004;-0.055;0.070;
20200920_182740;-0.060;5.504;7.721;-0.005;-0.024;0.086;
20200920_182741;0.342;4.094;8.473;0.030;0.073;0.179;
20200920_182741;1.001;4.772;9.426;0.006;0.027;0.027;
20200920_182741;0.254;4.175;10.788;-0.036;0.042;-0.071;
20200920_182741;0.347;4.233;7.793;-0.015;0.079;-0.141;
20200920_182741;-0.860;6.117;7.863;-0.007;0.004;-0.121;
20200920_182741;0.005;5.368;9.337;0.023;-0.049;0.032;
20200920_182741;0.297;4.065;8.610;-0.000;0.002;0.045;
20200920_182741;-0.302;4.946;9.067;-0.006;0.054;-0.043;
20200920_182741;0.649;4.094;8.013;0.032;-0.032;-0.155;
20200920_182742;0.081;4.547;6.594;-0.012;-0.003;0.067;
20200920_182742;0.812;5.353;7.685;-0.013;0.006;-0.011;
20200920_182742;0.093;4.116;8.356;-0.013;0.021;-0.161;
20200920_182742;0.235;4.350;8.313;-0.058;-0.008;-0.039;
20200920_182742;-0.551;5.459;9.555;0.038;-0.036;-0.094;
20200920_182742;0.189;5.157;13.786;0.057;-0.063;0.151;
20200920_182742;-1.717;2.667;8.557;-0.006;0.049;0.253;
20200920_182742;0.390;5.933;6.357;0.084;0.120;0.134;
20200920_182742;0.534;5.169;7.870;-0.009;0.066;-0.387;
20200920_182742;0.491;5.523;8.559;0.015;0.002;-0.417;
20200920_182743;0.860;5.344;8.641;0.020;-0.161;-0.375;
20200920_182743;-1.731;2.789;7.961;-0.011;-0.142;-0.056;
20200920_182743;-0.134;5.013;7.458;-0.048;-0.165;0.151;
20200920_182743;-1.140;5.662;6.869;0.061;-0.176;0.124;
20200920_182743;-1.781;4.748;9.629;-0.050;-0.063;0.407;
20200920_182743;-1.614;11.832;23.171;-0.527;-0.098;0.487;
20200920_182743;1.630;5.162;0.055;-0.300;-0.057;0.122;
20200920_182743;-3.215;4.211;15.859;0.960;0.089;0.116;
20200920_182743;0.843;5.315;-7.657;-0.105;0.048;0.358;
20200920_182744;4.606;2.749;8.602;-0.935;0.012;-0.060;
20200920_182744;0.383;1.714;6.761;0.288;0.030;0.184;
20200920_182744;-5.351;-0.017;18.376;-0.004;0.092;0.312;
20200920_182744;0.122;5.437;10.216;-0.091;0.230;0.472;
20200920_182744;0.153;9.376;1.271;0.248;0.190;-0.046;
20200920_182744;1.602;5.401;10.465;0.042;0.162;-0.273;
20200920_182744;-1.290;6.091;5.387;0.069;0.070;-0.234;
20200920_182744;0.462;3.893;5.612;-0.128;-0.039;0.005;
20200920_182744;1.341;5.674;5.725;-0.099;-0.013;0.082;
20200920_182744;-1.276;6.187;5.435;0.014;0.112;-0.147;
20200920_182745;-0.089;8.861;20.612;-0.095;0.036;-0.076;
20200920_182745;-1.420;5.157;7.611;0.013;0.081;0.168;
20200920_182745;-0.067;8.234;6.847;0.167;0.043;0.115;
20200920_182745;-0.747;2.777;8.315;-0.097;0.135;-0.155;
20200920_182745;0.895;3.481;-4.499;0.084;0.014;-0.421;
20200920_182745;-1.628;6.179;13.451;-0.194;-0.114;-0.414;
20200920_182745;1.686;0.697;13.542;-0.201;-0.154;-0.063;
20200920_182745;-0.433;7.075;4.702;0.060;-0.140;-0.012;
20200920_182745;-0.419;2.301;4.008;0.088;-0.148;0.015;
20200920_182746;0.412;3.496;9.153;-0.036;-0.014;0.297;
20200920_182746;0.551;5.373;8.626;-0.012;0.027;-0.014;
20200920_182746;0.268;5.018;7.999;0.045;-0.030;-0.240;
20200920_182746;-0.479;4.513;8.693;0.037;-0.143;-0.109;
20200920_182746;-0.455;4.834;9.251;-0.040;-0.125;0.128;
20200920_182746;-0.618;4.846;7.520;-0.032;-0.095;0.228;
20200920_182746;1.405;4.111;10.281;-0.096;-0.039;0.155;
20200920_182746;-0.251;5.064;6.718;0.044;-0.036;-0.052;
20200920_182746;-0.081;3.989;8.092;0.051;-0.010;0.128;
20200920_182747;0.663;5.100;8.973;-0.004;0.090;0.208;
20200920_182747;-0.766;5.483;7.082;0.013;0.025;-0.106;
20200920_182747;-0.867;3.819;9.773;-0.087;-0.055;0.088;
20200920_182747;0.443;3.991;8.305;-0.029;-0.008;0.241;
20200920_182747;0.316;5.490;8.399;0.012;0.128;0.249;
20200920_182747;0.508;4.743;7.750;0.070;0.124;0.034;
20200920_182747;0.974;3.579;8.447;0.073;0.160;-0.036;
20200920_182747;1.046;4.506;9.558;-0.030;0.181;-0.178;
20200920_182747;-0.350;4.420;8.538;-0.069;0.086;-0.325;
20200920_182747;-0.182;5.183;7.199;0.024;0.090;-0.148;
20200920_182748;-0.778;5.669;9.275;0.030;0.012;-0.139;
20200920_182748;0.153;4.611;8.756;0.026;0.033;-0.041;
20200920_182748;0.132;4.769;7.793;0.052;-0.050;-0.118;
20200920_182748;-0.651;4.322;10.235;-0.014;-0.045;-0.120;
20200920_182748;0.618;4.338;8.406;-0.005;-0.057;-0.125;
20200920_182748;-0.448;3.417;8.844;-0.009;-0.092;-0.101;
20200920_182748;0.563;4.106;8.926;-0.004;-0.029;0.003;
20200920_182748;-0.893;4.738;9.361;-0.020;-0.055;-0.020;
20200920_182748;0.323;4.515;7.764;-0.004;-0.001;0.100;
20200920_182749;0.053;4.530;7.800;-0.040;-0.023;-0.035;
20200920_182749;-0.297;4.712;9.505;0.019;-0.053;-0.108;
20200920_182749;-0.239;4.714;7.956;0.020;-0.083;-0.009;
20200920_182749;0.053;5.258;8.483;0.076;-0.068;-0.157;
20200920_182749;0.455;4.053;8.689;0.039;-0.113;-0.023;
20200920_182749;0.115;5.327;7.645;0.045;-0.106;-0.113;
20200920_182749;0.172;3.694;8.349;-0.009;-0.097;-0.016;
20200920_182749;0.034;4.563;8.181;-0.020;-0.100;0.029;
20200920_182749;0.467;5.145;8.203;-0.022;-0.024;0.038;
20200920_182749;-1.216;4.518;6.984;0.043;-0.087;0.005;
20200920_182750;-0.060;4.353;8.090;-0.015;-0.060;0.242;
20200920_182750;-0.450;4.290;9.400;-0.029;-0.008;0.165;
20200920_182750;0.467;5.540;8.013;-0.013;0.009;0.082;
20200920_182750;-0.481;4.384;7.178;-0.011;0.030;0.081;
20200920_182750;-0.151;4.803;8.576;0.038;0.045;0.021;
20200920_182750;0.869;3.467;8.471;0.004;0.062;0.073;
20200920_182750;-0.690;3.596;9.266;0.003;0.064;0.027;
20200920_182750;-1.032;4.606;8.964;0.032;0.053;0.174;
20200920_182750;1.669;4.025;7.580;0.030;0.095;0.087;
20200920_182751;0.675;4.092;8.212;-0.000;0.124;0.023;
20200920_182751;0.630;5.171;8.981;0.004;0.034;-0.134;
20200920_182751;0.227;5.952;9.515;-0.033;0.031;-0.207;
20200920_182751;1.748;4.369;7.673;0.017;0.018;-0.174;
20200920_182751;0.800;5.188;8.215;-0.006;0.013;-0.106;
20200920_182751;0.441;4.937;8.107;0.014;-0.000;-0.162;
20200920_182751;0.697;3.723;8.466;-0.036;0.003;-0.036;
20200920_182751;-1.247;5.844;7.420;-0.013;0.009;-0.018;
20200920_182751;-1.279;4.901;8.550;-0.048;-0.038;-0.037;
20200920_182752;-0.603;4.932;7.616;0.014;-0.068;-0.026;
20200920_182752;0.577;5.023;8.981;0.031;-0.050;0.110;
20200920_182752;-0.464;3.879;8.131;0.031;-0.051;-0.002;
20200920_182752;1.125;5.203;8.547;-0.027;-0.049;0.048;
20200920_182752;-0.036;5.030;9.622;-0.030;-0.030;-0.112;
20200920_182752;0.862;4.451;7.412;0.021;0.006;-0.026;
20200920_182752;0.498;5.880;8.078;-0.006;0.007;0.110;
20200920_182752;-1.058;4.511;9.122;0.013;0.081;0.089;
20200920_182752;0.316;5.167;7.851;0.017;-0.045;-0.157;
20200920_182752;-0.591;3.934;9.182;-0.015;-0.011;-0.050;
20200920_182753;0.000;3.654;9.021;-0.028;0.047;0.071;
20200920_182753;-0.031;4.915;8.179;-0.033;-0.009;-0.129;
20200920_182753;-0.187;4.003;8.356;-0.055;-0.034;-0.039;
20200920_182753;0.220;4.810;9.354;-0.001;-0.013;-0.036;
20200920_182753;0.120;5.064;6.936;0.067;0.032;-0.036;
20200920_182753;-0.522;4.472;9.103;-0.004;0.064;-0.024;
20200920_182753;-0.754;5.021;6.843;0.027;0.035;-0.059;
20200920_182753;1.063;3.436;11.868;-0.147;-0.018;-0.058;
20200920_182753;0.057;6.017;7.721;0.076;-0.102;-0.286;
20200920_182754;0.333;4.350;7.183;0.096;-0.080;0.042;
20200920_182754;-0.876;3.436;9.589;-0.092;-0.141;-0.076;
20200920_182754;0.424;5.509;7.405;-0.076;-0.139;0.072;
20200920_182754;-0.548;3.831;8.164;0.038;-0.025;0.189;
20200920_182754;1.118;3.903;8.140;-0.003;-0.022;0.172;
20200920_182754;0.244;4.875;7.317;0.045;0.140;0.039;
20200920_182754;-0.687;6.072;7.539;-0.004;0.062;-0.170;
20200920_182754;0.127;3.857;10.554;-0.058;0.023;-0.143;
20200920_182754;1.204;3.208;8.722;-0.016;-0.051;-0.297;
20200920_182755;-1.348;4.645;8.009;0.043;-0.041;-0.092;
20200920_182755;0.124;5.353;9.438;-0.007;-0.138;0.022;
20200920_182755;-0.524;3.907;9.706;-0.025;-0.116;0.025;
20200920_182755;-0.024;3.630;7.513;0.019;-0.058;0.147;
20200920_182755;0.797;5.155;8.698;-0.014;-0.039;0.062;
20200920_182755;-0.527;5.066;6.531;0.099;0.052;0.102;
20200920_182755;-0.156;4.705;8.973;-0.009;-0.052;0.024;
20200920_182755;-0.524;4.922;8.114;0.023;0.024;0.154;
20200920_182755;0.096;4.975;7.685;0.033;0.059;0.146;
20200920_182756;-0.175;4.130;9.225;0.004;0.053;-0.034;
20200920_182756;1.034;5.286;8.282;0.017;0.069;-0.089;
20200920_182756;-0.113;4.611;8.492;0.060;0.025;-0.112;
20200920_182756;0.043;3.852;9.191;-0.020;0.037;-0.074;
20200920_182756;0.565;5.313;9.960;-0.030;0.061;0.001;
20200920_182756;-0.055;4.523;8.370;0.049;0.098;-0.165;
20200920_182756;-1.116;4.602;9.009;-0.000;-0.080;-0.231;
20200920_182756;-1.769;5.205;9.342;-0.037;-0.094;0.037;
20200920_182756;0.606;4.810;7.288;0.008;-0.013;0.327;
20200920_182756;0.809;4.939;9.131;0.006;-0.018;0.017;
20200920_182757;0.721;3.919;8.679;-0.009;0.012;-0.075;
20200920_182757;-0.012;4.058;7.796;0.028;-0.036;-0.149;
20200920_182757;-0.283;3.735;8.507;-0.021;-0.029;-0.023;
20200920_182757;-0.163;4.324;7.633;-0.000;0.041;0.199;
20200920_182757;-0.225;5.195;6.476;0.024;-0.018;0.006;
20200920_182757;-0.187;3.910;9.376;-0.010;0.007;0.113;
20200920_182757;-0.828;4.606;7.673;-0.013;-0.016;-0.010;
20200920_182757;0.678;3.160;9.182;-0.021;0.067;0.052;
20200920_182757;0.072;4.233;9.565;-0.017;0.034;-0.192;
20200920_182758;0.852;5.370;7.884;-0.021;0.012;-0.188;
20200920_182758;-0.354;5.358;6.948;0.014;-0.057;-0.096;
20200920_182758;-1.116;5.497;8.926;0.056;0.030;0.127;
20200920_182758;0.771;6.160;8.442;0.095;0.106;0.108;
20200920_182758;-0.589;6.484;5.782;-0.058;0.085;-0.039;
20200920_182758;0.347;4.975;10.805;-0.011;0.080;-0.110;
20200920_182758;-0.948;5.025;7.286;0.013;0.098;-0.257;
20200920_182758;0.443;3.706;7.659;-0.042;0.051;-0.305;
20200920_182758;0.936;2.121;10.278;0.018;-0.034;-0.434;
20200920_182758;-0.414;4.283;8.435;0.152;-0.083;-0.428;
20200920_182759;-0.584;5.102;9.098;0.073;-0.236;-0.259;
20200920_182759;-1.362;2.444;7.219;-0.047;-0.223;-0.157;
20200920_182759;-0.991;5.617;6.321;0.038;-0.189;0.079;
20200920_182759;-1.590;3.716;6.187;0.067;-0.198;0.089;
20200920_182759;-0.735;5.057;5.397;0.006;-0.210;0.278;
20200920_182759;-0.424;5.650;7.482;-0.040;-0.111;0.385;
20200920_182759;1.437;5.011;16.027;-0.174;0.017;0.432;
20200920_182759;1.695;0.414;0.146;0.181;0.007;0.091;
20200920_182759;-1.176;2.713;12.649;0.100;0.149;-0.025;
20200920_182800;-0.764;7.623;8.507;-0.166;0.179;0.108;
20200920_182800;0.371;12.251;2.468;0.301;0.120;-0.129;
20200920_182800;-0.855;1.018;7.604;-0.045;0.100;-0.226;
20200920_182800;-1.183;5.100;9.644;-0.107;0.052;-0.032;
20200920_182800;-0.002;4.053;9.270;-0.009;-0.012;-0.046;
20200920_182800;-0.347;4.142;9.608;-0.002;-0.030;-0.175;
20200920_182800;-1.010;4.041;8.475;-0.019;-0.009;-0.011;
20200920_182800;0.177;4.001;7.408;-0.061;-0.154;-0.071;
20200920_182800;-0.347;4.657;7.475;-0.021;-0.071;0.063;
20200920_182801;2.124;5.942;6.076;-0.082;-0.048;0.002;
20200920_182801;-1.197;6.620;-2.265;0.370;0.038;0.068;
20200920_182801;-0.757;0.450;10.657;-0.141;-0.015;0.114;
20200920_182801;1.018;5.588;9.606;-0.216;0.100;-0.133;
20200920_182801;0.290;4.781;18.390;-0.134;0.048;0.004;
20200920_182801;-0.955;3.859;4.307;0.037;-0.049;-0.178;
20200920_182801;-0.608;8.080;5.399;-0.001;-0.058;-0.178;
20200920_182801;0.163;5.909;10.700;0.208;-0.155;-0.262;
20200920_182801;-0.761;8.169;7.841;0.083;-0.146;0.115;
20200920_182801;3.689;0.280;9.912;-0.078;-0.262;-0.024;
20200920_182802;-0.625;1.712;10.934;0.015;-0.147;0.120;
20200920_182802;-0.309;3.967;12.919;-0.101;-0.140;0.589;
20200920_182802;0.881;6.285;6.036;0.071;-0.053;0.248;
20200920_182802;-0.864;4.331;8.739;-0.184;0.021;0.408;
20200920_182802;-0.618;6.855;11.983;0.049;0.083;0.366;
20200920_182802;0.306;8.389;3.907;0.234;0.056;0.340;
20200920_182802;2.753;8.021;12.670;-0.085;0.068;0.451;
20200920_182802;2.545;7.499;6.323;-0.049;0.277;0.283;
20200920_182802;1.566;6.100;12.629;0.003;0.307;0.128;
20200920_182803;-2.684;1.039;-3.144;0.205;0.302;-0.006;
20200920_182803;1.587;-5.571;21.873;0.071;0.196;0.013;
20200920_182803;0.515;5.598;4.611;0.157;0.078;-0.277;
20200920_182803;-2.152;5.078;5.787;-0.047;0.210;0.021;
20200920_182803;-0.405;2.480;11.016;-0.123;0.165;-0.095;
20200920_182803;1.982;-4.669;13.405;0.077;0.043;-0.175;
20200920_182803;-0.974;6.804;3.543;0.206;0.059;-0.206;
20200920_182803;-0.429;-0.711;8.633;-0.076;-0.123;-0.183;
20200920_182803;2.842;7.700;6.977;0.011;-0.138;0.214;
20200920_182803;-2.722;5.713;11.066;-0.118;0.103;0.137;
20200920_182804;1.219;3.673;7.736;-0.030;0.046;-0.078;
20200920_182804;-2.468;4.944;10.611;0.037;-0.071;-0.177;
20200920_182804;-0.266;4.314;4.604;0.138;-0.085;0.041;
20200920_182804;-0.153;5.260;4.604;0.146;-0.039;0.216;
20200920_182804;0.187;3.242;11.495;0.164;0.021;0.165;
20200920_182804;-1.267;3.280;6.673;-0.005;-0.053;0.019;
20200920_182804;0.618;0.273;9.210;-0.377;0.010;0.415;
20200920_182804;0.311;5.385;9.574;-0.100;0.114;-0.140;
20200920_182804;-0.498;6.359;9.797;0.030;0.040;0.048;
20200920_182805;0.927;4.357;13.123;-0.012;0.117;0.071;
20200920_182805;0.417;3.692;11.885;-0.132;0.112;-0.055;
20200920_182805;-0.134;5.543;5.509;0.225;-0.000;-0.128;
20200920_182805;-0.366;6.764;6.776;0.092;-0.056;0.006;
20200920_182805;-0.493;9.014;15.682;-0.191;0.039;0.013;
20200920_182805;0.855;6.687;5.590;0.161;-0.042;-0.069;
20200920_182805;-1.221;2.727;7.317;0.129;-0.009;-0.033;
20200920_182805;0.546;7.125;14.801;-0.128;-0.051;0.127;
20200920_182805;-0.539;11.830;7.271;0.004;0.007;0.222;
20200920_182806;-1.209;2.555;9.318;-0.063;0.053;0.176;
20200920_182806;0.204;7.434;2.820;0.239;0.018;0.155;
20200920_182806;0.115;3.539;5.612;0.038;0.055;0.103;
20200920_182806;2.301;3.773;0.043;0.119;0.130;0.025;
20200920_182806;1.022;5.468;14.657;-0.111;0.161;-0.212;
20200920_182806;4.132;1.173;3.946;-0.293;-0.098;-0.015;
20200920_182806;-1.513;4.132;8.353;0.199;0.102;-0.203;
20200920_182806;0.328;5.243;8.119;-0.002;-0.029;-0.226;
20200920_182806;-0.098;2.473;9.582;-0.010;0.005;-0.109;
20200920_182806;1.235;4.245;7.135;0.035;0.045;-0.027;
20200920_182807;3.519;5.634;21.126;-0.174;-0.047;-0.127;
20200920_182807;-3.007;9.100;0.555;0.554;-0.091;0.122;
20200920_182807;-1.245;-7.101;1.245;0.180;-0.101;0.209;
20200920_182807;1.161;-2.100;13.039;-0.261;-0.057;0.125;
20200920_182807;2.270;1.516;7.932;-0.360;-0.191;-0.014;
20200920_182807;1.403;2.128;7.973;0.033;0.031;0.070;
20200920_182807;0.441;4.255;8.408;-0.000;0.018;-0.055;
20200920_182807;-0.795;3.706;8.641;-0.007;0.084;0.024;
20200920_182807;0.991;5.545;8.308;0.010;0.008;-0.043;
20200920_182808;-1.034;4.420;9.888;-0.006;0.071;-0.002;
20200920_182808;-0.081;6.570;6.179;0.029;-0.007;-0.095;
20200920_182808;-1.178;3.359;8.071;0.037;-0.001;0.023;
20200920_182808;-1.317;5.660;8.957;-0.040;-0.095;-0.036;
20200920_182808;-1.798;5.365;7.022;-0.018;-0.097;0.072;
20200920_182808;0.148;4.853;7.626;0.046;-0.011;0.221;
20200920_182808;1.815;5.112;7.640;0.018;-0.000;-0.031;
20200920_182808;-0.773;4.839;8.531;-0.023;0.012;-0.033;
20200920_182808;0.165;5.933;8.373;0.022;-0.014;0.322;
20200920_182809;0.218;5.241;7.391;0.059;0.205;0.306;
20200920_182809;0.637;5.404;7.939;0.016;0.141;0.020;
20200920_182809;-0.069;4.334;7.647;0.012;0.136;-0.096;
20200920_182809;0.795;4.252;9.069;-0.009;0.107;-0.108;
20200920_182809;-0.184;5.250;6.349;0.071;0.022;-0.173;
20200920_182809;-0.362;3.943;8.758;0.016;0.029;-0.090;
20200920_182809;1.089;5.097;6.993;-0.005;0.049;-0.066;
20200920_182809;1.039;4.269;8.329;-0.015;-0.047;-0.395;
20200920_182809;-0.247;4.073;8.430;-0.026;-0.065;-0.189;
20200920_182809;-0.393;4.678;7.585;0.013;0.056;0.113;
20200920_182810;-0.742;3.905;7.879;0.011;-0.029;-0.067;
20200920_182810;-1.293;4.063;8.351;-0.028;-0.045;-0.017;
20200920_182810;0.170;4.216;8.672;-0.031;-0.056;-0.056;
20200920_182810;0.508;5.303;8.466;0.017;-0.045;-0.134;
20200920_182810;-0.182;3.282;8.097;0.013;-0.039;-0.033;
20200920_182810;-0.273;4.748;8.203;-0.012;-0.028;0.008;
20200920_182810;-0.436;4.563;9.175;-0.006;-0.069;-0.076;
20200920_182810;0.661;4.290;8.784;0.016;-0.010;-0.001;
20200920_182810;0.060;4.434;7.204;0.053;0.025;-0.050;
20200920_182811;-0.931;4.743;8.643;-0.000;-0.057;-0.081;
20200920_182811;-1.429;4.666;9.194;-0.014;-0.008;0.111;
20200920_182811;0.079;4.094;9.613;0.018;0.005;-0.033;
20200920_182811;0.436;5.152;8.286;0.001;0.039;0.005;
20200920_182811;-0.211;5.404;10.235;-0.032;-0.056;-0.251;
20200920_182811;0.189;5.658;8.636;-0.007;-0.050;-0.129;
20200920_182811;-0.366;4.214;7.939;-0.033;-0.083;-0.135;
20200920_182811;1.159;4.918;8.215;0.010;-0.069;-0.052;
20200920_182811;0.340;5.057;8.894;-0.003;-0.035;0.031;
20200920_182811;-0.292;4.939;8.327;0.027;-0.032;-0.047;
20200920_182812;-0.869;5.792;8.260;0.012;-0.068;0.045;
20200920_182812;-1.508;3.685;8.564;-0.034;-0.040;0.135;
20200920_182812;0.283;5.698;8.918;-0.004;-0.091;0.018;
20200920_182812;0.201;5.629;7.901;-0.000;-0.090;0.016;
20200920_182812;1.032;3.237;9.704;-0.029;-0.057;-0.008;
20200920_182812;-0.534;4.911;8.236;-0.058;-0.041;-0.082;
20200920_182812;-0.400;3.967;7.623;0.001;-0.095;-0.017;
20200920_182812;0.263;4.714;8.064;0.017;-0.075;0.208;
20200920_182812;-0.646;4.341;8.849;-0.017;0.056;0.342;
20200920_182813;-0.196;4.860;8.554;-0.002;0.131;0.162;
20200920_182813;0.809;3.493;1.451;-0.016;0.163;0.037;
20200920_182813;0.608;6.493;15.376;0.081;-0.055;-0.384;
20200920_182813;-1.755;5.658;9.108;0.312;-0.108;-0.044;
20200920_182813;4.583;3.237;1.705;0.283;-0.164;0.236;
20200920_182813;0.227;5.353;9.203;-0.053;-0.065;0.166;
20200920_182813;1.903;3.728;8.224;-0.030;0.096;0.355;
20200920_182813;1.630;4.839;3.991;0.092;0.102;0.157;
20200920_182813;0.022;4.140;2.998;0.173;0.182;0.088;
20200920_182814;-1.592;1.523;10.072;-0.158;0.109;-0.087;
20200920_182814;0.718;3.438;7.484;-0.074;0.079;0.117;
20200920_182814;0.359;4.851;9.299;-0.016;0.101;0.050;
20200920_182814;0.642;4.750;7.166;0.028;0.144;-0.138;
20200920_182814;-0.237;4.075;10.111;-0.046;-0.014;-0.077;
20200920_182814;0.517;5.260;8.011;-0.006;0.040;0.033;
20200920_182814;0.912;4.695;8.495;-0.022;0.088;-0.083;
20200920_182814;-0.699;4.408;9.752;-0.000;0.030;-0.014;
20200920_182814;0.742;5.059;7.858;0.008;0.113;0.054;
20200920_182814;-0.452;5.497;8.787;0.028;0.084;-0.207;
20200920_182815;-0.912;4.154;8.739;-0.010;0.040;-0.144;
20200920_182815;0.522;4.575;7.803;0.004;-0.093;-0.240;
20200920_182815;-0.611;5.763;6.914;0.045;-0.101;-0.132;
20200920_182815;-0.089;4.221;9.459;-0.009;-0.188;-0.067;
20200920_182815;-0.230;5.260;7.776;-0.015;-0.124;-0.039;
20200920_182815;-0.192;4.851;6.639;0.006;-0.091;0.007;
20200920_182815;-0.611;4.310;8.677;-0.014;-0.100;0.157;
20200920_182815;-4.946;5.605;8.926;0.015;0.055;0.075;
20200920_182815;-1.006;3.110;9.510;-0.006;0.120;0.192;
20200920_182816;1.013;4.278;9.708;-0.031;0.106;-0.087;
20200920_182816;0.903;4.300;7.994;0.008;0.084;-0.222;
20200920_182816;-0.105;5.042;7.997;0.006;0.027;-0.200;
20200920_182816;-0.417;4.635;9.704;-0.006;-0.068;-0.172;
20200920_182816;-0.204;5.382;7.537;-0.027;-0.063;-0.045;
20200920_182816;1.686;5.758;8.954;0.002;-0.090;-0.243;
20200920_182816;-0.800;3.788;9.268;0.011;-0.102;-0.130;
20200920_182816;-0.795;5.883;6.929;0.062;-0.155;0.180;
20200920_182816;0.254;4.345;7.882;0.021;-0.036;0.361;
20200920_182817;-0.113;4.307;8.732;-0.048;0.074;0.222;
20200920_182817;-0.180;5.373;8.490;0.005;0.052;0.072;
20200920_182817;0.156;4.211;7.623;0.001;-0.040;-0.229;
20200920_182817;-1.642;5.061;7.044;0.001;0.031;0.007;
20200920_182817;-0.326;5.368;8.231;0.002;-0.093;0.105;
20200920_182817;1.575;4.640;9.052;-0.053;-0.049;0.141;
20200920_182817;-0.168;4.221;9.596;-0.059;-0.003;-0.001;
20200920_182817;0.603;3.515;7.913;-0.032;0.015;0.010;
20200920_182817;0.630;5.169;8.119;0.056;0.030;0.226;
20200920_182817;-0.771;4.436;6.924;0.050;0.094;0.068;
20200920_182818;0.390;3.821;8.150;-0.001;0.098;0.094;
20200920_182818;-0.752;4.978;9.357;-0.013;0.125;0.027;
20200920_182818;-0.057;4.666;8.610;0.002;0.064;-0.095;
20200920_182818;0.783;3.302;7.252;0.035;0.083;-0.134;
20200920_182818;-0.486;6.278;8.562;0.037;0.025;-0.165;
20200920_182818;0.069;4.446;8.164;0.021;-0.073;-0.076;
20200920_182818;0.852;4.594;7.906;0.008;-0.056;-0.053;
20200920_182818;-0.953;4.752;10.163;-0.022;-0.039;-0.034;
20200920_182818;-0.515;4.712;7.302;-0.002;-0.053;0.013;
20200920_182819;0.402;4.815;8.076;-0.012;-0.048;0.177;
20200920_182819;0.390;5.104;8.772;-0.004;0.025;0.076;
20200920_182819;-0.450;5.349;7.901;0.028;0.015;0.017;
20200920_182819;-0.919;4.180;9.294;-0.038;0.002;0.083;
20200920_182819;0.326;4.025;8.892;-0.001;0.001;0.024;
20200920_182819;-0.488;4.178;7.226;0.029;-0.009;0.063;
20200920_182819;0.895;5.313;7.537;0.002;0.027;0.002;
20200920_182819;0.345;6.242;6.687;0.052;0.052;-0.058;
20200920_182819;-0.031;3.859;9.120;0.016;0.058;-0.099;
20200920_182819;0.567;4.650;10.305;-0.009;0.024;-0.170;
20200920_182820;-0.579;4.575;7.843;0.003;0.051;-0.040;
20200920_182820;-1.245;4.116;9.134;-0.009;-0.031;-0.023;
20200920_182820;-0.347;5.461;7.714;-0.013;-0.080;0.050;
20200920_182820;-0.915;4.247;7.578;0.017;-0.048;0.084;
20200920_182820;0.019;4.456;7.142;-0.005;0.016;0.054;
20200920_182820;0.045;5.569;7.922;0.010;-0.031;-0.026;
20200920_182820;0.694;4.717;7.238;0.011;0.038;0.049;
20200920_182820;1.233;5.452;7.769;0.016;-0.050;-0.272;
20200920_182820;-0.383;4.721;8.483;0.005;-0.059;-0.055;
20200920_182821;-0.350;4.369;9.292;0.010;-0.092;0.040;
20200920_182821;-0.395;4.506;10.331;0.010;0.037;0.270;
20200920_182821;-0.496;4.673;8.387;-0.005;0.033;0.099;
20200920_182821;-0.192;4.994;9.012;-0.042;0.079;0.085;
20200920_182821;-0.646;3.895;6.996;0.004;0.071;0.031;
20200920_182821;0.385;4.164;7.630;0.043;0.086;0.025;
20200920_182821;-0.649;4.997;9.146;0.016;0.098;-0.094;
20200920_182821;0.081;4.523;9.088;0.014;0.101;-0.037;
20200920_182821;1.312;3.163;2.535;-0.011;0.121;-0.246;
20200920_182821;0.409;8.143;-2.433;0.323;0.025;-0.434;
20200920_182822;-0.211;9.716;5.382;0.392;-0.215;-0.433;
20200920_182822;-2.648;6.998;8.806;-0.189;-0.141;-0.003;
20200920_182822;-1.827;4.733;8.368;-0.103;-0.146;0.236;
20200920_182822;-1.073;4.022;9.143;0.006;-0.112;0.201;
20200920_182822;-0.563;4.111;8.461;-0.017;-0.075;0.222;
20200920_182822;1.547;4.906;9.270;0.001;0.009;0.031;
20200920_182822;-0.045;4.520;7.772;0.076;-0.007;-0.048;
20200920_182822;0.685;4.592;7.570;0.050;0.048;0.174;
20200920_182822;1.614;4.748;8.748;-0.047;0.089;-0.099;
20200920_182823;-0.122;3.211;8.236;-0.072;0.073;-0.257;
20200920_182823;0.917;4.831;8.851;-0.003;0.057;-0.169;
20200920_182823;-1.202;4.535;7.283;0.015;0.046;-0.113;
20200920_182823;-0.074;4.681;9.548;0.019;-0.046;-0.265;
20200920_182823;-0.412;6.201;8.916;0.012;-0.072;-0.003;
20200920_182823;-0.247;3.709;8.147;0.014;-0.075;-0.109;
20200920_182823;-1.563;5.143;7.922;0.048;-0.195;-0.210;
20200920_182823;-0.249;4.640;5.258;-0.005;-0.287;0.110;
20200920_182823;-1.144;4.496;8.064;-0.010;-0.161;0.491;
20200920_182824;1.360;6.337;8.538;-0.000;-0.064;0.326;
20200920_182824;0.831;5.315;5.631;0.206;0.061;0.038;
20200920_182824;0.050;4.164;11.844;0.115;0.051;0.021;
20200920_182824;1.932;5.095;8.641;0.051;0.102;-0.027;
20200920_182824;-0.661;4.776;5.950;0.089;0.008;-0.133;
20200920_182824;0.888;6.539;7.961;-0.000;-0.089;0.045;
20200920_182824;-0.357;5.155;8.653;-0.026;-0.115;0.106;
20200920_182824;-1.183;6.335;8.935;-0.013;-0.059;0.315;
20200920_182824;0.754;4.367;8.523;0.086;-0.090;0.276;
20200920_182824;0.053;3.366;8.516;-0.006;-0.011;0.347;
20200920_182825;-0.127;3.974;8.497;-0.072;0.079;0.448;
20200920_182825;-0.323;5.169;11.174;-0.007;0.215;0.241;
20200920_182825;0.915;5.988;9.395;0.024;0.332;0.405;
20200920_182825;0.057;3.857;8.574;0.089;0.384;-0.057;
20200920_182825;-0.328;5.246;8.162;0.066;0.299;-0.207;
20200920_182825;0.759;4.820;8.004;0.006;0.261;-0.203;
20200920_182825;0.096;3.974;9.431;0.034;0.189;-0.324;
20200920_182825;1.788;3.943;9.103;0.089;0.134;-0.347;
20200920_182825;0.467;4.025;8.009;-0.010;-0.016;-0.437;
20200920_182826;-0.457;4.760;8.291;0.031;-0.081;-0.308;
20200920_182826;-0.704;4.216;8.758;-0.001;-0.124;-0.130;
20200920_182826;-0.022;6.218;9.122;0.072;-0.046;0.027;
20200920_182826;-0.711;4.257;8.416;-0.022;-0.091;-0.163;
20200920_182826;-0.905;5.066;7.116;-0.022;-0.062;0.054;
20200920_182826;-0.184;5.131;10.192;0.020;-0.036;0.122;
20200920_182826;-0.582;2.909;9.280;-0.072;-0.064;-0.143;
20200920_182826;-1.013;2.119;7.717;-0.094;-0.156;-0.006;
20200920_182826;-1.602;3.919;5.710;0.054;-0.190;0.046;
20200920_182827;0.436;4.314;7.875;-0.065;-0.136;0.117;
20200920_182827;-0.857;4.616;8.437;-0.039;-0.014;0.143;
20200920_182827;0.807;4.223;8.935;-0.011;0.021;0.042;
20200920_182827;-0.725;3.598;9.500;-0.044;-0.016;-0.029;
20200920_182827;-0.024;4.590;9.155;-0.053;0.019;0.144;
20200920_182827;-0.115;5.459;8.294;0.017;0.064;0.066;
20200920_182827;-0.345;4.554;6.778;0.005;0.004;-0.033;
20200920_182827;-0.668;4.908;7.276;0.035;-0.012;-0.036;
20200920_182827;0.237;3.285;10.898;-0.029;-0.035;0.050;
20200920_182827;-0.084;4.669;8.147;-0.051;-0.063;0.091;
20200920_182828;0.749;5.509;7.585;-0.068;0.004;0.163;
20200920_182828;0.266;4.369;8.626;0.004;0.041;-0.013;
20200920_182828;0.400;4.434;8.801;-0.037;0.061;-0.018;
20200920_182828;0.917;4.920;6.290;0.052;0.019;-0.084;
20200920_182828;-0.153;5.557;7.776;0.065;0.071;-0.014;
20200920_182828;-0.946;4.554;7.745;-0.002;-0.004;-0.049;
20200920_182828;-0.230;3.244;8.782;-0.086;-0.024;0.061;
20200920_182828;-0.773;4.403;10.527;-0.080;-0.025;-0.000;
20200920_182828;-0.682;4.345;7.937;0.057;-0.065;-0.069;
20200920_182829;0.062;4.444;8.145;0.022;-0.076;0.119;
20200920_182829;0.299;3.673;7.760;0.027;-0.041;0.216;
20200920_182829;0.364;4.487;7.796;0.018;0.022;0.099;
20200920_182829;0.048;3.905;9.596;0.002;0.046;0.083;
20200920_182829;-0.127;3.752;10.807;-0.037;0.138;0.133;
20200920_182829;0.390;4.197;6.558;0.021;0.130;0.031;
20200920_182829;-0.199;6.970;11.770;0.042;0.120;0.039;
20200920_182829;-0.828;4.187;8.188;0.045;0.139;-0.083;
20200920_182829;0.144;3.871;10.247;-0.060;0.124;-0.141;
20200920_182829;-0.290;4.130;6.364;-0.006;0.014;-0.338;
20200920_182830;-0.036;5.114;6.886;0.027;-0.022;-0.073;
20200920_182830;1.745;5.006;4.628;0.085;-0.079;-0.235;
20200920_182830;-0.941;5.385;4.374;-0.038;-0.014;-0.099;
20200920_182830;-0.979;5.971;5.823;0.003;-0.062;-0.101;
20200920_182830;-0.831;1.243;-6.776;0.251;0.016;0.005;
20200920_182830;-0.206;2.406;13.558;-0.177;0.043;-0.257;
20200920_182830;2.014;8.531;4.377;0.028;-0.039;-0.252;
20200920_182830;0.433;3.563;1.101;0.189;-0.085;-0.156;
20200920_182830;-1.324;2.030;10.108;0.003;-0.056;-0.093;
20200920_182831;-2.069;6.946;11.083;0.052;-0.002;-0.115;
20200920_182831;0.211;4.290;7.927;-0.039;-0.058;-0.090;
20200920_182831;1.140;4.085;9.979;-0.001;-0.094;-0.079;
20200920_182831;0.412;4.386;7.393;0.043;-0.094;-0.084;
20200920_182831;-0.450;4.520;9.076;0.024;-0.077;0.001;
20200920_182831;-0.419;4.745;8.155;-0.028;-0.093;-0.045;
20200920_182831;0.010;3.891;10.326;-0.053;-0.113;0.001;
20200920_182831;-0.481;4.851;8.260;0.017;-0.149;0.014;
20200920_182831;-0.967;5.167;6.036;-0.006;-0.044;0.120;
20200920_182832;-0.675;5.713;8.971;-0.045;-0.064;0.017;
20200920_182832;-0.144;4.889;9.002;0.042;-0.029;0.032;
20200920_182832;0.196;4.583;9.967;0.020;-0.076;-0.006;
20200920_182832;-0.845;3.479;9.131;-0.015;-0.025;0.048;
20200920_182832;-0.692;5.614;8.811;0.023;-0.028;0.125;
20200920_182832;-0.256;3.857;10.348;-0.052;0.041;0.159;
20200920_182832;-1.228;3.572;8.729;0.005;-0.040;0.090;
20200920_182832;1.030;4.207;6.754;-0.013;-0.057;0.030;
20200920_182832;-0.678;5.957;6.081;0.060;0.049;0.194;
20200920_182832;-0.053;4.664;8.258;-0.007;0.035;0.155;
20200920_182833;1.094;6.426;9.464;-0.079;0.055;0.094;
20200920_182833;1.487;4.283;7.649;-0.005;0.050;-0.028;
20200920_182833;-0.481;3.929;9.591;-0.068;0.113;0.033;
20200920_182833;0.120;5.741;7.298;0.034;0.112;0.133;
20200920_182833;-0.022;3.194;7.889;0.043;0.139;0.017;
20200920_182833;0.488;4.942;8.147;0.017;0.027;-0.132;
20200920_182833;-0.304;5.394;6.926;0.003;0.066;-0.055;
20200920_182833;-0.244;5.112;9.776;-0.032;0.022;-0.111;
20200920_182833;-1.348;4.499;7.937;-0.021;-0.047;-0.008;
20200920_182833;1.013;4.154;8.897;-0.092;-0.047;0.122;
20200920_182834;0.587;4.843;9.792;-0.005;0.036;0.087;
20200920_182834;0.713;4.887;9.254;0.023;0.089;-0.025;
20200920_182834;0.113;4.645;7.913;0.039;0.053;-0.156;
20200920_182834;0.462;4.221;8.222;0.019;0.068;-0.094;
20200920_182834;-1.080;4.726;7.537;0.027;-0.004;-0.187;
20200920_182834;0.192;4.221;7.508;0.020;-0.115;-0.000;
20200920_182834;0.666;3.484;8.701;0.007;-0.105;0.035;
20200920_182834;-1.173;4.324;9.761;-0.051;-0.044;0.091;
20200920_182834;-0.572;3.409;11.842;-0.030;-0.057;0.147;
20200920_182835;1.305;3.235;7.527;0.031;0.015;0.145;
20200920_182835;0.555;2.852;9.574;0.036;0.083;0.006;
20200920_182835;-0.158;4.250;4.472;0.042;0.061;-0.047;
20200920_182835;0.443;6.330;8.899;0.057;0.119;0.045;
20200920_182835;0.048;5.131;7.075;0.045;0.036;-0.269;
20200920_182835;0.419;5.586;9.625;-0.018;-0.078;-0.091;
20200920_182835;0.148;6.076;6.000;-0.035;-0.093;-0.073;
20200920_182835;-0.721;6.053;9.342;0.023;-0.073;0.075;
20200920_182835;-1.142;2.612;10.283;-0.120;-0.046;0.279;
20200920_182836;1.633;4.671;6.256;-0.010;0.072;0.218;
20200920_182836;0.019;4.851;10.240;0.010;0.118;0.005;
20200920_182836;-0.369;4.384;9.498;-0.017;0.063;-0.158;
20200920_182836;-0.103;4.585;10.441;-0.004;0.111;-0.129;
20200920_182836;-0.599;4.733;7.336;0.011;-0.049;-0.187;
20200920_182836;-0.014;4.911;7.927;0.002;-0.077;0.106;
20200920_182836;0.304;6.021;7.333;0.015;-0.056;0.154;
20200920_182836;-1.106;4.729;6.823;0.048;0.016;0.091;
20200920_182836;0.438;3.891;9.543;0.023;-0.001;0.052;
20200920_182836;0.196;5.897;9.515;0.013;0.032;-0.058;
20200920_182837;-0.527;4.489;9.960;0.039;0.051;-0.065;
20200920_182837;0.807;4.096;7.690;0.004;0.003;-0.129;
20200920_182837;0.328;4.489;7.563;-0.004;-0.023;-0.124;
20200920_182837;-0.984;4.271;10.333;0.015;-0.077;0.014;
20200920_182837;-1.753;4.362;10.714;0.013;-0.029;0.189;
20200920_182837;-0.699;2.883;10.139;-0.027;-0.042;0.179;
20200920_182837;-0.654;5.143;8.758;-0.016;0.035;0.286;
20200920_182837;0.407;3.168;9.041;-0.019;0.085;0.121;
20200920_182837;-0.065;3.704;9.756;0.003;0.124;-0.078;
20200920_182838;0.213;3.251;8.076;-0.007;0.074;-0.113;
20200920_182838;0.500;4.326;9.285;-0.025;0.003;-0.151;
20200920_182838;0.807;5.806;7.891;0.045;0.046;-0.010;
20200920_182838;-0.893;4.417;9.488;0.004;-0.015;-0.141;
20200920_182838;-1.956;4.515;9.009;-0.036;-0.042;0.172;
20200920_182838;0.057;4.032;9.189;-0.047;-0.058;0.249;
20200920_182838;0.122;4.468;6.692;0.028;0.082;0.166;
20200920_182838;0.560;2.583;8.147;-0.055;0.019;-0.097;
20200920_182838;0.534;4.745;8.068;0.030;0.101;-0.087;
20200920_182838;0.809;3.982;8.037;0.029;-0.014;-0.176;
20200920_182839;-0.570;4.034;8.844;0.022;-0.008;-0.092;
20200920_182839;0.132;4.573;7.599;0.012;0.013;0.088;
20200920_182839;-0.718;4.063;8.516;-0.002;0.034;0.018;
20200920_182839;-0.558;4.573;8.825;-0.013;-0.018;0.017;
20200920_182839;-0.448;5.212;8.238;-0.001;0.013;-0.025;
20200920_182839;-0.285;3.730;8.411;-0.027;0.005;-0.026;
20200920_182839;-0.388;3.867;9.060;-0.027;-0.055;-0.076;
20200920_182839;0.426;5.322;7.161;0.030;-0.065;0.030;
20200920_182839;-0.213;5.289;9.225;-0.000;-0.053;0.014;
20200920_182840;-0.280;3.836;7.405;0.028;-0.047;0.076;
20200920_182840;-0.512;5.042;9.337;0.010;-0.031;0.168;
20200920_182840;0.359;4.480;8.969;-0.009;0.049;0.154;
20200920_182840;0.096;4.903;8.588;0.002;0.103;0.042;
20200920_182840;0.211;4.293;9.306;0.011;0.080;-0.055;
20200920_182840;0.792;3.440;10.767;0.023;0.080;-0.146;
20200920_182840;-0.359;3.953;8.712;0.017;-0.014;-0.251;
20200920_182840;0.115;4.305;9.345;-0.007;-0.015;0.004;
20200920_182840;0.553;4.855;7.496;0.032;-0.013;-0.139;
20200920_182841;-0.359;4.255;7.525;0.021;-0.034;-0.116;
20200920_182841;0.275;4.142;8.904;-0.010;-0.048;0.074;
20200920_182841;-0.764;4.319;9.697;-0.012;-0.004;0.160;
20200920_182841;-0.436;5.933;7.348;0.023;-0.006;0.073;
20200920_182841;-0.946;4.841;7.611;-0.023;0.084;0.193;
20200920_182841;0.905;4.922;7.108;-0.061;0.092;-0.036;
20200920_182841;0.721;4.077;7.896;0.030;-0.020;-0.313;
20200920_182841;0.074;3.345;9.644;-0.027;-0.029;-0.127;
20200920_182841;1.377;4.053;8.167;-0.017;-0.059;-0.198;
20200920_182841;-0.139;3.974;10.412;-0.016;-0.059;-0.238;
20200920_182842;-1.006;4.994;8.473;0.007;-0.089;0.204;
20200920_182842;-0.625;4.992;7.992;0.010;-0.024;0.344;
20200920_182842;0.790;4.278;8.665;0.013;0.062;0.133;
20200920_182842;-0.781;5.792;6.488;0.069;0.098;0.046;
20200920_182842;-0.156;3.340;8.425;-0.003;0.166;0.083;
20200920_182842;0.955;4.389;-1.554;-0.013;0.081;-0.366;
20200920_182842;-1.006;9.230;-0.436;0.046;-0.072;-0.372;
20200920_182842;0.237;8.868;7.116;0.062;-0.096;-0.154;
20200920_182842;1.317;3.081;7.956;0.024;-0.105;-0.106;
20200920_182842;-0.764;5.049;9.515;-0.013;-0.116;-0.088;
20200920_182843;-0.050;4.590;6.347;0.060;-0.163;0.138;
20200920_182843;-0.426;3.606;8.746;-0.063;-0.055;0.261;
20200920_182843;-0.776;3.915;7.393;-0.053;0.041;0.218;
20200920_182843;-0.089;3.428;9.754;0.011;0.046;0.051;
20200920_182843;0.168;4.365;10.242;0.008;0.012;-0.144;
20200920_182843;-0.603;4.805;8.119;0.055;0.017;-0.090;
20200920_182843;0.591;4.896;9.060;0.030;-0.069;-0.029;
20200920_182843;0.663;5.329;7.920;0.001;0.040;-0.008;
20200920_182843;1.065;4.348;7.865;-0.017;-0.010;-0.318;
20200920_182844;-0.860;4.029;7.930;-0.036;-0.056;-0.142;
20200920_182844;0.091;4.408;6.759;0.027;-0.030;0.123;
20200920_182844;-0.199;4.085;9.634;-0.022;-0.028;0.063;
20200920_182844;-0.548;5.856;7.805;-0.053;0.022;0.110;
20200920_182844;-0.915;5.823;8.080;0.065;-0.003;0.026;
20200920_182844;1.238;2.892;6.433;0.076;0.008;0.019;
20200920_182844;-0.098;5.476;6.469;0.052;0.010;-0.147;
20200920_182844;1.326;5.042;8.583;0.045;-0.124;-0.235;
20200920_182844;0.692;4.678;7.228;0.001;-0.109;-0.118;
20200920_182844;0.211;4.293;10.077;-0.078;-0.115;0.038;
20200920_182845;-0.915;4.487;8.198;-0.052;-0.141;0.196;
20200920_182845;-0.496;4.096;8.095;0.011;-0.046;0.323;
20200920_182845;-0.069;4.046;6.737;0.044;0.094;0.383;
20200920_182845;-0.776;4.511;8.746;0.079;0.271;0.239;
20200920_182845;2.351;4.475;8.724;0.053;0.153;-0.203;
20200920_182845;0.120;5.717;10.058;0.045;0.081;-0.415;
20200920_182845;0.036;2.342;8.633;-0.017;0.134;0.054;
20200920_182845;-0.105;5.780;9.352;-0.031;0.057;-0.365;
20200920_182845;0.034;4.441;8.981;-0.042;-0.006;-0.252;
20200920_182846;-0.543;3.244;8.303;0.019;0.001;-0.040;
20200920_182846;-0.888;3.938;8.540;0.062;0.085;0.090;
20200920_182846;0.431;0.589;9.002;-0.384;0.003;-0.274;
20200920_182846;-1.712;3.282;4.379;-1.556;-0.095;-0.214;
20200920_182846;-0.804;-6.452;22.958;1.652;-0.027;-0.216;
20200920_182846;-1.551;12.136;8.135;-0.296;-0.139;-0.107;
20200920_182846;-0.129;4.154;5.346;0.072;-0.224;-0.132;
20200920_182846;0.742;3.946;10.120;-0.028;-0.113;-0.051;
20200920_182846;0.151;4.096;7.508;0.045;-0.159;-0.210;
20200920_182847;-1.202;4.247;8.387;0.084;-0.185;0.040;
20200920_182847;-0.836;4.183;10.321;-0.048;-0.181;0.236;
20200920_182847;0.036;5.993;5.928;0.152;-0.001;0.263;
20200920_182847;-0.362;4.116;9.155;-0.045;0.030;0.063;
20200920_182847;-0.266;5.914;5.555;-0.047;0.027;0.014;
20200920_182847;-0.385;4.561;7.479;0.028;-0.091;-0.118;
20200920_182847;-0.977;5.198;8.485;0.071;-0.107;-0.140;
20200920_182847;-0.057;3.723;7.690;-0.056;-0.155;0.062;
20200920_182847;1.123;4.015;10.920;0.037;-0.158;0.056;
20200920_182847;-0.771;5.437;8.933;-0.133;-0.046;0.279;
20200920_182848;-1.379;3.924;8.466;-0.056;-0.043;0.218;
20200920_182848;0.407;5.636;9.244;-0.049;0.022;0.380;
20200920_182848;-0.180;3.723;8.696;0.076;0.144;0.258;
20200920_182848;0.385;5.183;7.870;-0.009;0.163;0.264;
20200920_182848;-0.658;5.016;8.499;-0.042;0.189;0.275;
20200920_182848;1.736;2.909;9.141;0.032;0.125;-0.080;
20200920_182848;-1.032;5.042;14.006;-0.083;0.264;-0.044;
20200920_182848;0.656;3.187;8.416;-0.007;0.129;-0.160;
20200920_182848;1.085;5.983;6.797;0.029;0.041;-0.171;
20200920_182849;1.188;5.143;9.246;0.015;0.058;-0.269;
20200920_182849;-0.831;4.259;8.471;-0.053;0.069;-0.195;
20200920_182849;-1.956;5.152;8.226;0.030;-0.032;0.035;
20200920_182849;-0.836;3.886;10.642;-0.105;0.049;0.123;
20200920_182849;0.421;4.281;6.871;0.113;0.102;-0.076;
20200920_182849;-0.053;4.662;6.929;-0.124;-0.017;-0.374;
20200920_182849;0.342;4.451;7.966;0.023;-0.166;-0.210;
20200920_182849;-1.911;7.271;17.028;-0.385;-0.169;0.008;
20200920_182849;2.140;5.047;-0.199;0.166;-0.185;0.248;
20200920_182849;2.105;3.723;3.129;-0.358;-0.094;0.167;
20200920_182850;0.529;6.577;-0.553;0.240;-0.014;0.148;
20200920_182850;0.407;5.191;8.612;0.242;-0.017;0.061;
20200920_182850;-0.175;7.417;0.606;0.599;0.180;0.107;
20200920_182850;-2.164;3.385;10.764;-0.157;0.038;-0.166;
20200920_182850;-2.693;5.583;7.523;0.182;0.035;0.389;
20200920_182850;0.570;5.488;10.642;-0.050;-0.160;0.182;
20200920_182850;0.225;10.453;8.648;0.307;0.048;0.216;
20200920_182850;0.026;7.005;5.389;0.471;-0.006;-0.044;
20200920_182850;1.391;4.884;11.224;0.085;0.019;0.352;
20200920_182851;0.189;5.528;-0.053;-0.043;0.160;-0.212;
20200920_182851;-2.109;1.255;7.623;0.148;0.134;-0.256;
20200920_182851;-0.886;7.551;7.508;0.039;0.098;-0.053;
20200920_182851;-1.092;5.895;6.297;-0.164;0.172;0.110;
20200920_182851;-0.879;7.712;7.144;0.118;0.092;-0.117;
20200920_182851;0.441;3.505;14.217;-0.290;0.037;-0.225;
20200920_182851;0.431;6.955;4.676;0.232;-0.064;-0.358;
20200920_182851;-1.609;5.643;2.164;0.091;-0.098;-0.154;
20200920_182851;-0.553;6.476;6.857;-0.052;-0.158;-0.043;
20200920_182852;0.778;7.637;6.208;0.073;-0.125;0.176;
20200920_182852;0.649;5.772;7.750;-0.067;0.053;0.279;
20200920_182852;-0.608;3.333;4.444;-0.063;0.091;-0.043;
20200920_182852;-1.161;3.553;13.748;0.061;0.121;-0.075;
20200920_182852;0.323;7.005;11.430;-0.324;0.058;-0.051;
20200920_182852;0.378;6.017;5.131;-0.105;0.069;-0.273;
20200920_182852;-2.873;6.859;9.129;0.076;0.010;-0.105;
20200920_182852;0.129;4.616;13.171;-0.035;-0.013;-0.010;
20200920_182852;-0.038;3.816;6.519;-0.167;-0.094;-0.199;
20200920_182852;0.397;6.862;8.246;-0.055;-0.098;0.084;
20200920_182853;0.139;4.980;9.754;-0.051;-0.033;0.007;
20200920_182853;0.242;2.473;0.680;0.255;-0.104;-0.037;
20200920_182853;0.381;6.843;12.668;-0.004;-0.039;0.204;
20200920_182853;-0.402;5.011;12.814;-0.174;0.085;0.139;
20200920_182853;0.014;2.986;5.389;-0.084;0.069;-0.095;
20200920_182853;0.084;4.623;6.656;0.082;0.010;-0.078;
20200920_182853;0.144;6.129;-2.737;0.523;-0.050;-0.179;
20200920_182853;-1.726;6.802;14.059;0.072;-0.026;0.042;
20200920_182853;0.601;4.640;7.738;-0.019;0.020;0.252;
20200920_182854;0.208;4.640;4.784;-0.124;0.053;-0.062;
20200920_182854;0.891;5.351;16.362;-0.310;0.116;-0.088;
20200920_182854;1.197;6.474;3.704;-0.030;-0.008;-0.062;
20200920_182854;-0.376;5.957;12.354;-0.436;0.063;0.032;
20200920_182854;-0.503;6.438;14.473;-0.054;-0.000;-0.122;
20200920_182854;-1.097;2.868;7.681;0.047;-0.066;0.134;
20200920_182854;-1.575;8.231;15.833;-0.420;-0.077;0.149;
20200920_182854;-2.514;11.341;6.630;0.372;-0.009;-0.051;
20200920_182854;2.614;1.235;6.891;0.018;-0.105;0.088;
20200920_182854;1.448;2.528;1.425;0.085;0.075;0.047;
20200920_182855;0.948;8.272;7.417;-0.135;0.112;-0.251;
20200920_182855;-0.127;7.017;14.554;-0.027;0.025;-0.033;
20200920_182855;-0.096;7.676;8.423;0.425;-0.002;-0.087;
20200920_182855;0.876;4.013;15.620;-0.023;0.099;0.179;
20200920_182855;-1.786;-3.402;9.246;-0.427;-0.045;0.111;
20200920_182855;-2.303;-2.313;8.332;-0.159;-0.057;0.144;
20200920_182855;-0.725;4.238;1.762;0.024;0.030;0.114;
20200920_182855;-1.202;2.895;8.250;-0.173;-0.127;-0.124;
20200920_182855;0.462;5.729;10.635;0.102;0.108;0.192;
20200920_182856;0.160;2.713;7.113;-0.088;-0.020;-0.020;
20200920_182856;-1.171;5.349;13.123;0.091;0.103;-0.127;
20200920_182856;0.520;4.990;8.384;0.096;0.047;-0.130;
20200920_182856;2.191;7.649;12.596;0.173;-0.109;-0.076;
20200920_182856;-1.575;2.804;10.060;0.070;-0.056;0.210;
20200920_182856;-0.053;6.093;11.356;-0.084;-0.127;0.169;
20200920_182856;0.702;4.085;3.153;0.137;-0.028;0.124;
20200920_182856;-0.781;4.427;5.097;0.086;-0.138;0.043;
20200920_182856;-0.330;6.366;2.926;-0.025;0.050;0.400;
20200920_182857;0.661;4.494;2.823;0.219;0.108;0.066;
20200920_182857;-0.742;8.416;16.166;-0.004;0.195;0.162;
20200920_182857;0.788;2.308;13.534;-0.248;0.139;-0.361;
20200920_182857;-0.232;4.266;7.717;-0.397;0.030;-0.408;
20200920_182857;-1.784;7.029;6.670;0.020;-0.066;-0.012;
20200920_182857;-1.527;3.484;8.705;-0.059;-0.130;0.328;
20200920_182857;1.863;0.699;11.126;-0.195;-0.030;0.208;
20200920_182857;2.626;1.568;-8.586;0.128;-0.131;0.036;
20200920_182857;1.290;3.120;7.994;-0.026;0.042;-0.204;
20200920_182857;0.611;8.119;-4.532;0.276;-0.009;-0.126;
20200920_182858;-3.622;6.809;4.192;0.470;0.066;0.005;
20200920_182858;-1.176;8.653;8.346;0.292;0.084;0.104;
20200920_182858;-0.254;2.315;11.650;-0.015;0.086;-0.192;
20200920_182858;-2.447;1.652;8.966;-0.219;0.027;0.102;
20200920_182858;1.729;6.412;7.973;-0.025;-0.127;-0.006;
20200920_182858;-1.484;4.168;12.412;-0.056;-0.002;-0.006;
20200920_182858;1.202;3.330;11.229;-0.244;-0.046;0.070;
20200920_182858;1.120;0.548;12.773;-0.244;-0.051;-0.243;
20200920_182858;1.171;6.457;9.218;-0.145;-0.064;0.101;
20200920_182859;2.061;-1.800;4.231;-0.251;0.007;0.154;
20200920_182859;0.251;5.622;14.571;-0.203;0.112;0.064;
20200920_182859;-1.532;2.938;8.698;-0.003;0.051;-0.129;
20200920_182859;-0.381;3.979;4.990;0.125;0.020;0.052;
20200920_182859;-2.306;4.647;8.782;0.372;-0.034;-0.023;
20200920_182859;-1.408;6.096;11.392;0.035;-0.053;-0.035;
20200920_182859;-0.204;2.897;12.902;-0.299;-0.053;0.034;
20200920_182859;-1.688;6.680;8.588;-0.218;-0.035;-0.018;
20200920_182859;0.287;8.198;5.622;-0.037;-0.063;0.103;
20200920_182859;1.202;7.219;4.781;-0.028;-0.016;-0.039;
20200920_182900;-0.790;7.013;11.875;-0.111;0.069;0.051;
20200920_182900;-1.137;5.260;9.443;-0.140;-0.032;-0.062;
20200920_182900;-1.221;3.359;18.024;-0.261;0.035;0.009;
20200920_182900;2.799;5.356;5.227;0.208;-0.116;0.097;
20200920_182900;-0.316;-0.946;3.395;-0.090;0.024;-0.132;
20200920_182900;1.523;6.967;4.671;0.211;-0.100;-0.077;
20200920_182900;0.991;-2.375;1.939;0.210;-0.010;-0.035;
20200920_182900;-0.804;5.406;8.523;0.012;0.082;-0.015;
20200920_182900;-2.014;3.086;13.640;0.183;0.022;0.245;
20200920_182901;-0.144;6.970;12.644;-0.181;0.186;0.084;
20200920_182901;-1.482;1.520;13.530;-0.197;0.140;0.029;
20200920_182901;-2.193;-1.302;6.460;0.196;0.019;-0.328;
20200920_182901;0.927;10.319;10.661;0.173;-0.193;-0.253;
20200920_182901;-0.625;7.772;14.265;0.111;-0.157;0.046;
20200920_182901;0.431;6.266;14.593;-0.359;-0.185;0.284;
20200920_182901;1.365;5.227;3.287;0.015;-0.139;0.264;
20200920_182901;0.285;8.047;11.997;-0.200;0.113;0.234;
20200920_182901;0.227;4.300;15.984;-0.096;0.209;0.137;
20200920_182901;0.974;2.073;5.892;0.107;0.204;-0.167;
20200920_182902;1.899;7.987;14.775;-0.344;0.117;-0.187;
20200920_182902;-1.245;4.791;6.709;-0.104;0.013;-0.216;
20200920_182902;0.785;1.755;-1.595;0.081;-0.061;-0.004;
20200920_182902;-1.633;5.880;1.484;0.030;-0.060;-0.192;
20200920_182902;1.128;8.033;7.559;0.340;-0.118;-0.044;
20200920_182902;-3.050;11.449;6.318;0.644;-0.051;0.105;
20200920_182902;-1.353;5.260;8.918;0.099;-0.078;-0.075;
20200920_182902;-0.860;2.727;11.030;-0.200;-0.014;0.326;
20200920_182902;-1.867;0.838;9.993;0.248;0.076;0.087;
20200920_182903;1.516;4.535;12.752;-0.113;0.059;-0.020;
20200920_182903;-1.525;3.424;12.311;-0.283;0.125;-0.123;
20200920_182903;-0.522;2.873;4.511;0.032;-0.028;-0.167;
20200920_182903;1.480;5.590;10.312;0.043;-0.112;-0.073;
20200920_182903;0.431;4.317;9.187;-0.078;-0.131;0.012;
20200920_182903;1.221;0.929;5.291;0.001;-0.023;0.211;
20200920_182903;1.077;0.766;8.404;-0.079;0.031;0.222;
20200920_182903;-0.852;3.577;15.890;0.021;0.137;0.141;
20200920_182903;0.091;5.016;0.577;0.047;0.099;-0.228;
20200920_182904;1.104;6.946;6.000;-0.276;0.019;-0.273;
20200920_182904;-0.735;6.740;5.655;0.177;-0.109;-0.156;
20200920_182904;-0.292;6.929;12.811;0.110;-0.074;-0.037;
20200920_182904;-0.029;5.198;13.180;-0.137;-0.140;0.145;
20200920_182904;-0.081;4.298;13.391;-0.108;-0.036;0.138;
20200920_182904;0.421;5.658;6.931;0.079;0.155;0.389;
20200920_182904;0.340;1.915;12.048;-0.277;0.167;-0.293;
20200920_182904;0.424;4.831;14.301;-0.043;0.101;-0.363;
20200920_182904;-1.209;1.592;2.076;0.196;0.004;-0.126;
20200920_182904;-0.029;2.471;9.814;-0.493;-0.067;-0.065;
20200920_182905;0.103;5.708;4.135;-0.076;-0.123;0.091;
20200920_182905;-0.251;2.978;7.831;-0.129;-0.156;0.009;
20200920_182905;-0.237;4.836;-0.565;0.235;-0.018;0.204;
20200920_182905;1.544;2.203;3.227;0.452;-0.044;-0.019;
20200920_182905;-1.188;6.560;10.740;0.209;0.036;-0.133;
20200920_182905;0.110;3.479;1.307;0.156;-0.048;-0.145;
20200920_182905;-1.128;1.944;6.582;0.236;-0.017;-0.033;
20200920_182905;-1.470;9.385;6.713;0.369;-0.036;0.094;
20200920_182905;2.380;8.289;6.812;0.065;-0.156;-0.097;
20200920_182906;0.895;3.893;-8.183;0.343;0.002;0.140;
20200920_182906;-1.482;6.646;10.530;-0.012;-0.018;0.135;
20200920_182906;2.227;8.250;3.840;0.109;0.074;0.121;
20200920_182906;0.903;3.189;13.214;-0.071;0.053;0.004;
20200920_182906;-1.097;4.003;5.363;0.138;0.075;-0.284;
20200920_182906;0.019;-1.872;6.373;-0.239;0.085;-0.067;
20200920_182906;-3.122;3.919;8.780;-0.284;0.043;0.243;
20200920_182906;0.273;0.108;7.580;-0.044;-0.009;-0.036;
20200920_182906;0.019;9.445;9.081;0.153;-0.118;-0.114;
20200920_182906;-0.002;3.886;14.823;-0.102;-0.108;-0.047;
20200920_182907;-0.180;3.910;7.003;-0.062;-0.099;0.125;
20200920_182907;-0.824;6.744;19.726;-0.404;-0.063;0.405;
20200920_182907;0.848;-2.995;3.742;-0.070;0.002;0.370;
20200920_182907;0.156;0.065;9.984;-0.271;0.154;0.080;
20200920_182907;0.395;4.247;14.028;-0.295;0.223;0.229;
20200920_182907;3.582;11.566;9.493;-0.217;0.144;-0.092;
20200920_182907;-0.373;-2.976;7.544;-0.099;0.062;-0.294;
20200920_182907;2.133;6.333;1.863;-0.271;0.033;-0.144;
20200920_182907;-1.587;4.199;16.829;0.274;-0.060;-0.445;
20200920_182908;0.848;1.777;14.729;0.113;0.024;-0.164;
20200920_182908;1.341;2.555;13.805;-0.231;-0.077;-0.407;
20200920_182908;-1.566;6.680;8.669;-0.013;0.039;0.251;
20200920_182908;-0.613;6.981;7.015;0.280;0.040;0.122;
20200920_182908;1.051;6.122;7.681;-0.232;0.127;-0.058;
20200920_182908;0.292;2.938;14.171;-0.196;0.051;-0.174;
20200920_182908;-0.204;2.476;10.197;0.012;-0.079;-0.186;
20200920_182908;0.852;0.438;2.116;0.040;-0.138;0.036;
20200920_182908;1.068;4.973;8.284;-0.019;-0.100;0.020;
20200920_182909;-2.399;5.368;5.543;0.246;-0.058;0.061;
20200920_182909;0.687;6.709;5.205;0.102;-0.068;0.106;
20200920_182909;-2.863;3.776;18.761;-0.135;0.094;0.073;
20200920_182909;2.179;7.908;-5.600;0.375;-0.004;0.313;
20200920_182909;2.069;5.069;9.529;-0.048;0.238;-0.271;
20200920_182909;1.197;8.363;6.033;0.177;0.050;-0.370;
20200920_182909;0.172;3.033;7.070;0.029;-0.139;-0.459;
20200920_182909;-0.407;6.524;10.101;-0.054;-0.169;0.090;
20200920_182909;-0.570;-0.280;6.065;-0.016;-0.120;0.372;
20200920_182909;1.717;7.063;7.420;0.143;-0.038;0.202;
20200920_182910;-1.556;7.008;8.466;0.158;0.010;0.174;
20200920_182910;2.528;4.073;6.139;-0.319;0.113;0.164;
20200920_182910;1.877;4.966;2.507;0.197;0.300;0.154;
20200920_182910;1.231;8.435;-1.290;0.122;0.259;-0.302;
20200920_182910;-0.237;6.304;3.747;0.001;0.265;-0.174;
20200920_182910;1.674;4.831;6.950;-0.104;0.150;-0.528;
20200920_182910;-0.177;8.066;-3.536;0.062;0.094;-0.426;
20200920_182910;-1.386;-0.148;-2.021;-1.540;-0.002;-0.599;
20200920_182910;3.172;13.716;16.237;0.226;-0.025;-0.700;
20200920_182910;0.215;13.496;22.692;1.203;0.041;-0.819;
20200920_182911;-0.273;-3.709;7.123;-0.591;-0.256;-0.281;
20200920_182911;2.152;7.556;-3.479;0.227;-0.104;-0.055;
20200920_182911;-0.388;0.716;4.417;-0.235;-0.209;-0.337;
20200920_182911;-0.405;2.746;7.475;0.373;-0.101;-0.221;
20200920_182911;2.538;10.652;-6.266;0.334;-0.159;-0.294;
20200920_182911;-2.825;5.401;8.897;0.416;-0.076;-0.695;
20200920_182911;-0.776;8.100;11.954;0.506;-0.189;-0.510;
20200920_182911;1.772;6.076;-4.863;0.621;-0.295;-0.193;
20200920_182911;3.285;5.464;3.065;0.353;-0.343;0.008;
20200920_182912;-0.795;10.819;3.565;0.235;-0.314;0.005;
20200920_182912;-3.223;11.830;8.473;0.361;-0.148;0.249;
20200920_182912;-2.921;5.808;9.244;0.081;-0.106;0.014;
20200920_182912;-0.541;5.045;7.690;0.007;-0.062;0.104;
20200920_182912;-0.091;2.071;9.548;0.109;-0.010;-0.169;
20200920_182912;1.774;2.234;12.321;0.076;-0.109;-0.454;
20200920_182912;-0.438;-0.354;5.684;0.295;-0.255;-0.108;
20200920_182912;0.031;1.992;8.325;-0.191;-0.142;-0.077;
20200920_182912;-1.305;3.950;6.127;-0.012;-0.251;0.009;
20200920_182912;-0.357;3.560;-0.304;-0.067;-0.146;0.221;
20200920_182913;-0.136;5.794;26.056;-0.853;0.052;0.003;
20200920_182913;-0.860;11.504;2.409;1.182;0.025;0.098;
20200920_182913;-1.927;1.221;9.787;-0.176;0.181;-0.108;
20200920_182913;-2.662;10.556;9.562;0.298;0.109;0.017;
20200920_182913;-1.597;6.079;8.320;0.027;-0.009;-0.071;
20200920_182913;-0.520;3.855;8.205;0.102;0.090;-0.090;
20200920_182913;0.666;3.922;7.410;0.044;0.031;-0.243;
20200920_182913;1.721;4.592;9.515;-0.051;-0.033;-0.228;
20200920_182913;0.259;4.539;7.858;-0.043;-0.053;-0.245;
20200920_182914;-1.549;5.174;8.210;-0.037;0.037;0.107;
20200920_182914;-0.026;4.223;8.112;-0.058;0.018;-0.024;
20200920_182914;0.206;4.468;5.593;0.076;0.098;-0.137;
20200920_182914;1.595;3.577;7.319;0.002;0.054;-0.431;
20200920_182914;-0.941;5.310;9.048;0.105;0.046;-0.421;
20200920_182914;0.146;5.629;11.741;0.085;-0.124;-0.330;
20200920_182914;-1.374;5.277;10.484;-0.006;-0.131;-0.360;
20200920_182914;-0.685;4.700;3.747;0.262;-0.183;-0.227;
20200920_182914;-0.723;2.492;11.009;0.088;-0.194;-0.195;
20200920_182914;0.730;3.184;6.577;0.133;-0.249;-0.200;
20200920_182915;-1.219;5.617;6.134;-0.047;-0.210;-0.191;
20200920_182915;-0.974;6.000;4.946;0.323;-0.187;0.143;
20200920_182915;-1.398;3.385;8.298;-0.125;-0.109;0.151;
20200920_182915;0.594;3.915;8.633;0.045;0.009;0.042;
20200920_182915;-0.565;4.894;8.574;0.077;-0.006;-0.300;
20200920_182915;0.448;4.441;9.780;-0.020;-0.010;-0.296;
20200920_182915;-0.330;4.142;8.942;0.040;-0.059;-0.272;
20200920_182915;-0.668;5.634;9.740;0.029;-0.069;-0.352;
20200920_182915;-0.934;4.836;8.296;0.098;-0.151;-0.252;
20200920_182916;-1.520;5.641;7.039;0.121;-0.136;-0.206;
20200920_182916;-0.735;4.362;8.959;0.069;-0.176;-0.084;
20200920_182916;0.570;4.365;8.272;0.049;-0.155;-0.032;
20200920_182916;-0.819;4.456;8.674;-0.010;-0.148;-0.192;
20200920_182916;-0.529;4.219;7.116;-0.056;-0.148;-0.102;
20200920_182916;0.223;5.921;8.090;0.103;-0.191;-0.111;
20200920_182916;0.448;4.221;9.036;-0.022;-0.146;-0.090;
20200920_182916;-0.788;3.934;7.906;0.098;-0.160;-0.229;
20200920_182916;-0.730;4.496;9.177;-0.039;-0.206;0.002;
20200920_182916;0.129;2.729;8.983;0.089;-0.108;0.231;
20200920_182917;0.345;4.178;11.133;-0.034;-0.034;0.084;
20200920_182917;-0.297;4.839;9.663;-0.031;0.056;0.048;
20200920_182917;0.951;2.255;9.448;-0.116;0.061;-0.308;
20200920_182917;0.108;4.065;10.168;0.001;-0.114;-0.493;
20200920_182917;-1.657;3.187;7.453;-0.017;-0.127;0.006;
20200920_182917;-0.690;3.871;11.080;0.034;-0.235;0.026;
20200920_182917;-0.323;3.812;8.499;-0.088;-0.191;0.206;
20200920_182917;0.354;2.124;10.518;-0.165;-0.095;0.230;
20200920_182917;-0.151;4.693;9.881;-0.051;0.010;0.147;
20200920_182918;-0.939;3.972;9.041;0.075;0.041;0.121;
20200920_182918;0.323;4.867;8.294;0.050;0.041;0.052;
20200920_182918;0.546;4.264;7.441;0.073;0.050;0.053;
20200920_182918;-0.347;3.661;10.077;0.057;0.071;-0.015;
20200920_182918;-0.263;6.730;9.335;-0.064;0.066;-0.098;
20200920_182918;-0.034;5.176;10.305;0.104;0.041;-0.094;
20200920_182918;-0.484;2.186;8.179;-0.083;0.005;-0.155;
20200920_182918;-0.096;3.898;9.670;0.023;-0.067;-0.138;
20200920_182918;-0.278;4.578;9.225;0.006;-0.079;-0.003;
20200920_182919;-0.239;4.178;8.181;-0.071;-0.100;0.052;
20200920_182919;-0.371;4.460;9.960;-0.060;-0.065;0.068;
20200920_182919;-0.036;3.467;6.783;-0.082;-0.107;0.066;
20200920_182919;0.302;3.986;3.359;0.137;-0.096;0.148;
20200920_182919;-0.007;4.954;-0.998;0.134;-0.058;0.317;
20200920_182919;-2.198;10.233;22.544;0.585;0.089;0.166;
20200920_182919;2.009;2.456;8.701;-0.570;-0.149;0.098;
20200920_182919;-1.822;5.270;0.603;0.720;0.020;0.362;
20200920_182919;1.530;4.791;10.051;-0.405;-0.022;0.347;
20200920_182919;0.182;5.284;9.962;-0.339;0.078;0.453;
20200920_182920;-0.158;-0.900;7.496;-0.489;0.225;0.478;
20200920_182920;-1.214;10.693;1.444;0.198;0.216;0.429;
20200920_182920;0.860;-3.974;18.589;0.134;0.355;0.411;
20200920_182920;-0.464;4.405;-1.255;0.089;0.230;0.129;
20200920_182920;-0.081;5.770;8.104;-0.251;0.257;0.050;
20200920_182920;1.235;5.102;5.868;0.195;0.211;-0.314;
20200920_182920;0.412;3.996;7.489;0.063;0.021;-0.752;
20200920_182920;0.041;7.796;11.320;0.034;-0.186;-0.627;
20200920_182920;-1.147;4.408;7.396;0.342;-0.238;0.335;
20200920_182921;-1.087;5.878;3.496;-0.189;-0.215;0.239;
20200920_182921;-1.961;3.699;6.567;0.154;-0.228;0.453;
20200920_182921;0.675;2.116;13.400;-0.408;-0.029;0.650;
20200920_182921;-0.639;7.523;4.515;-0.422;0.005;0.572;
20200920_182921;0.500;3.553;7.333;0.144;0.097;0.267;
20200920_182921;-0.989;6.809;10.032;-0.264;0.058;0.298;
20200920_182921;0.534;5.073;3.651;0.072;0.153;0.440;
20200920_182921;0.690;5.406;10.235;0.065;0.112;0.202;
20200920_182921;0.575;5.377;4.436;0.183;0.088;0.123;
20200920_182922;0.136;6.404;8.531;0.056;0.041;0.264;
20200920_182922;-0.548;3.259;6.546;-0.109;0.062;0.385;
20200920_182922;-0.278;4.171;16.000;-0.151;0.086;0.549;
20200920_182922;-1.678;4.128;14.782;0.118;0.153;0.271;
20200920_182922;0.199;7.853;0.831;-0.295;0.040;0.368;
20200920_182922;-3.096;1.604;36.928;-0.109;0.151;0.411;
20200920_182922;0.721;16.862;25.472;-1.449;0.227;-0.358;
20200920_182922;1.590;-4.475;3.589;-0.205;-0.098;0.143;
20200920_182922;-0.043;22.091;8.478;1.491;0.076;0.312;
20200920_182922;-8.677;-1.061;4.255;0.113;0.206;0.042;
20200920_182923;2.361;1.089;9.304;-0.056;0.166;0.676;
20200920_182923;-1.872;2.433;21.969;0.618;0.216;0.527;
20200920_182923;1.166;6.472;9.052;0.084;0.160;0.340;
20200920_182923;0.043;6.474;8.274;0.019;0.155;0.447;
20200920_182923;0.290;5.502;9.629;0.125;0.228;0.622;
20200920_182923;0.591;5.981;10.965;0.038;0.147;0.331;
20200920_182923;0.235;3.553;13.185;0.249;0.178;0.516;
20200920_182923;0.146;6.110;7.281;0.189;0.266;0.779;
20200920_182923;4.108;6.060;5.097;0.233;0.351;0.394;
20200920_182924;-3.187;5.885;15.943;0.427;0.350;0.162;
20200920_182924;-0.503;6.132;5.703;0.235;0.213;0.217;
20200920_182924;1.470;6.254;11.835;0.171;0.223;0.245;
20200920_182924;-0.275;4.472;7.554;0.323;0.307;0.447;
20200920_182924;0.828;8.270;4.820;0.303;0.316;0.423;
20200920_182924;0.134;5.993;4.903;0.322;0.373;0.361;
20200920_182924;0.939;4.226;7.578;0.158;0.336;0.254;
20200920_182924;-0.251;4.281;7.592;0.134;0.412;0.023;
20200920_182924;1.185;4.566;7.065;0.051;0.285;-0.104;
20200920_182925;0.156;3.740;9.316;-0.043;0.293;-0.063;
20200920_182925;1.642;5.162;9.270;-0.014;0.212;-0.402;
20200920_182925;-0.907;4.137;8.222;-0.029;0.097;-0.357;
20200920_182925;0.900;4.240;6.898;-0.033;0.014;-0.133;
20200920_182925;0.690;6.321;6.838;0.064;0.066;-0.195;
20200920_182925;-1.480;2.624;0.275;0.250;0.085;-0.002;
20200920_182925;1.470;6.744;3.117;0.332;0.099;-0.158;
20200920_182925;-0.565;2.322;9.471;0.006;-0.000;-0.358;
20200920_182925;0.168;-13.494;20.947;-1.913;-0.275;-0.218;
20200920_182926;0.012;1.173;3.689;-0.196;-0.136;0.105;
20200920_182926;-4.944;4.870;26.837;0.977;-0.060;0.069;
20200920_182926;1.192;2.215;8.222;0.046;-0.139;0.099;
20200920_182926;-0.069;6.816;8.001;0.062;-0.140;-0.089;
20200920_182926;-0.654;4.554;1.614;0.110;-0.043;0.086;
20200920_182926;0.005;5.073;9.112;-0.069;-0.099;0.328;
20200920_182926;0.608;3.440;4.606;-0.051;-0.046;0.215;
20200920_182926;0.204;3.728;11.018;-0.123;0.016;0.147;
20200920_182926;0.553;6.359;5.880;-0.019;0.114;0.216;
20200920_182926;-0.124;5.073;9.486;-0.075;0.053;0.095;
20200920_182927;0.206;3.836;7.939;-0.053;0.054;0.118;
20200920_182927;-0.730;5.660;8.119;0.039;0.123;0.270;
20200920_182927;1.925;3.385;2.313;0.369;0.099;0.204;
20200920_182927;3.407;9.919;-5.318;-1.113;0.261;-0.239;
20200920_182927;2.318;2.717;10.108;-0.605;0.152;-0.715;
20200920_182927;-1.075;8.406;5.641;0.503;0.017;-0.684;
20200920_182927;-1.338;8.456;7.949;0.160;-0.041;-0.093;
20200920_182927;-0.450;4.362;8.052;-0.103;-0.126;0.245;
20200920_182927;0.160;5.351;7.621;-0.044;-0.125;-0.040;
20200920_182928;-1.058;3.622;9.855;-0.043;-0.069;0.113;
20200920_182928;0.797;5.883;7.298;0.046;-0.095;0.100;
20200920_182928;0.515;4.863;9.979;0.094;0.003;0.084;
20200920_182928;-0.974;4.259;7.180;0.003;0.017;-0.001;
20200920_182928;0.340;6.053;7.717;0.026;-0.076;-0.176;
20200920_182928;1.499;4.183;7.396;0.030;0.088;0.303;
20200920_182928;-0.761;4.302;9.052;-0.049;-0.007;-0.169;
20200920_182928;-0.668;5.839;10.654;0.028;-0.068;-0.046;
20200920_182928;0.232;5.279;6.531;0.124;-0.058;0.135;
20200920_182929;-1.657;5.016;6.211;0.020;-0.058;0.068;
20200920_182929;-1.025;3.857;8.183;0.076;-0.068;0.347;
20200920_182929;0.407;3.151;7.542;0.044;0.012;0.277;
20200920_182929;-0.532;5.648;9.002;0.030;0.159;-0.025;
20200920_182929;-0.060;3.472;7.860;0.047;0.047;-0.124;
20200920_182929;-0.060;6.194;9.052;-0.069;0.055;-0.129;
20200920_182929;-0.139;5.954;8.351;-0.017;-0.018;-0.215;
20200920_182929;0.426;4.343;9.062;-0.000;-0.035;-0.118;
20200920_182929;-1.477;4.492;8.308;0.006;-0.077;-0.028;
20200920_182929;-0.757;5.322;8.406;0.046;-0.008;0.249;
20200920_182930;-0.764;4.429;10.645;-0.117;0.112;0.264;
20200920_182930;0.098;4.128;6.958;-0.044;0.074;0.052;
20200920_182930;0.122;4.702;8.813;0.011;-0.027;-0.112;
20200920_182930;1.906;4.769;6.091;0.223;-0.061;0.084;
20200920_182930;-0.455;5.102;8.701;0.013;-0.009;0.038;
20200920_182930;-0.105;4.702;8.768;0.042;0.023;0.040;
20200920_182930;0.864;5.741;8.765;-0.078;0.065;0.043;
20200920_182930;1.717;4.403;5.890;0.079;0.078;-0.055;
20200920_182930;0.060;4.037;8.703;-0.000;0.052;-0.162;
20200920_182931;-0.699;5.622;8.921;0.035;0.073;-0.082;
20200920_182931;-0.450;4.142;7.781;0.001;0.057;-0.011;
20200920_182931;-0.725;4.386;6.926;0.081;0.074;0.004;
20200920_182931;-0.266;4.037;8.868;0.017;0.025;-0.081;
20200920_182931;0.733;4.290;7.812;-0.031;-0.043;-0.177;
20200920_182931;-0.132;5.545;8.894;-0.019;-0.094;-0.079;
20200920_182931;0.132;5.265;7.432;0.005;-0.108;-0.055;
20200920_182931;-0.158;3.924;8.916;-0.055;-0.044;-0.006;
20200920_182931;0.220;4.611;10.183;-0.075;-0.004;-0.102;
20200920_182931;-0.620;3.989;6.788;0.078;-0.061;-0.051;
20200920_182932;-0.596;6.024;7.324;0.081;0.013;0.216;
20200920_182932;0.153;4.618;8.068;0.088;0.003;0.210;
20200920_182932;-0.230;5.435;8.710;0.007;0.058;-0.034;
20200920_182932;0.280;3.797;7.326;0.003;0.069;-0.124;
20200920_182932;-0.436;4.956;9.744;-0.011;-0.050;-0.232;
20200920_182932;0.304;4.324;6.314;0.120;-0.077;-0.111;
20200920_182932;0.871;3.290;9.448;-0.010;-0.098;0.045;
20200920_182932;-0.558;5.794;9.625;-0.030;-0.055;0.027;
20200920_182932;1.630;2.847;6.989;-0.030;-0.050;0.047;
20200920_182933;0.333;3.998;7.745;0.012;-0.024;-0.028;
20200920_182933;0.254;6.120;8.626;0.031;-0.045;0.036;
20200920_182933;-1.015;3.673;9.577;-0.015;0.024;0.081;
20200920_182933;0.024;5.492;8.341;-0.020;0.036;0.049;
20200920_182933;0.280;4.460;8.550;-0.033;0.005;-0.067;
20200920_182933;0.208;4.772;7.391;0.031;-0.052;-0.061;
20200920_182933;0.072;5.301;7.180;-0.088;-0.038;0.030;
20200920_182933;0.493;4.714;7.527;-0.021;-0.056;0.156;
20200920_182933;0.814;5.574;7.779;-0.031;0.003;0.068;
20200920_182933;0.383;5.298;9.041;0.064;0.004;-0.090;
20200920_182934;0.350;3.625;9.519;0.012;0.025;-0.057;
20200920_182934;-0.371;5.301;6.388;0.067;-0.014;0.043;
20200920_182934;-1.657;5.837;6.998;0.126;0.157;0.180;
20200920_182934;-0.584;6.282;8.009;-0.060;0.068;-0.182;
20200920_182934;0.476;4.049;7.104;0.088;-0.050;-0.247;
20200920_182934;-0.455;3.148;8.966;0.062;-0.067;-0.034;
20200920_182934;-0.496;5.286;10.149;0.028;-0.126;-0.060;
20200920_182934;0.165;4.899;7.281;-0.060;-0.032;0.309;
20200920_182934;-0.481;5.780;7.877;-0.006;0.020;0.055;
20200920_182935;0.299;3.797;7.882;-0.032;0.047;-0.078;
20200920_182935;-0.038;5.471;7.319;0.049;0.042;-0.027;
20200920_182935;0.733;4.808;8.990;0.084;0.047;-0.032;
20200920_182935;0.019;4.106;7.736;0.052;0.076;-0.042;
20200920_182935;-0.182;4.458;7.618;-0.050;0.012;-0.033;
20200920_182935;-0.239;4.501;9.965;0.010;-0.028;-0.048;
20200920_182935;-0.752;4.808;8.198;-0.023;-0.020;-0.025;
20200920_182935;0.182;4.867;7.645;0.034;0.020;-0.026;
20200920_182935;-0.792;6.014;6.938;-0.035;-0.078;-0.015;
20200920_182935;-0.079;4.580;8.035;0.071;-0.032;0.066;
20200920_182936;0.668;5.425;7.523;-0.059;-0.098;-0.051;
20200920_182936;-1.470;5.971;9.191;0.088;0.009;0.128;
20200920_182936;0.563;6.153;8.351;0.004;0.009;0.203;
20200920_182936;0.915;4.094;8.701;-0.144;0.127;0.174;
20200920_182936;-0.129;3.584;6.907;0.002;0.131;-0.066;
20200920_182936;-0.522;5.358;8.282;-0.037;0.103;-0.170;
20200920_182936;0.278;4.659;7.396;0.109;-0.030;-0.048;
20200920_182936;-1.427;5.270;9.122;0.076;0.045;0.032;
20200920_182936;-1.176;4.156;9.232;0.144;-0.015;-0.105;
20200920_182937;1.798;4.432;8.487;0.008;0.007;-0.230;
20200920_182937;-0.634;4.310;9.558;0.091;-0.041;-0.056;
20200920_182937;-0.050;2.667;10.228;0.154;-0.049;-0.072;
20200920_182937;0.359;6.759;8.701;-0.095;-0.089;0.097;
20200920_182937;-1.319;4.506;8.586;-0.092;-0.051;0.046;
20200920_182937;-1.104;5.231;6.689;-0.003;-0.095;0.211;
20200920_182937;-0.771;5.037;7.436;0.060;0.031;0.144;
20200920_182937;0.850;3.105;7.903;0.015;0.071;0.210;
20200920_182937;-0.084;4.954;7.944;-0.034;0.098;0.012;
20200920_182938;0.948;3.780;8.097;-0.019;0.067;-0.104;
20200920_182938;-0.225;4.501;9.855;-0.081;0.027;-0.229;
20200920_182938;0.278;3.998;8.830;-0.092;0.037;-0.110;
20200920_182938;-0.462;4.408;8.420;-0.027;-0.043;-0.134;
20200920_182938;-0.002;4.511;6.543;0.024;-0.011;0.152;
20200920_182938;0.146;4.429;8.478;0.014;0.004;0.119;
20200920_182938;0.658;4.882;8.341;0.065;0.049;-0.007;
20200920_182938;-0.235;5.325;7.870;-0.010;0.010;-0.157;
20200920_182938;-0.596;3.575;9.033;-0.126;0.013;-0.024;
20200920_182938;0.505;4.046;6.984;0.057;-0.011;-0.120;
20200920_182939;-0.464;4.729;8.112;0.056;-0.042;-0.076;
20200920_182939;0.955;4.604;7.793;-0.019;-0.040;-0.094;
20200920_182939;0.376;5.658;8.600;-0.000;-0.107;-0.265;
20200920_182939;-2.631;4.484;9.859;-0.054;-0.091;-0.030;
20200920_182939;-2.162;4.932;8.454;-0.046;-0.051;0.364;
20200920_182939;1.089;4.278;6.845;0.071;0.104;0.383;
20200920_182939;0.235;3.749;9.199;0.006;0.076;-0.145;
20200920_182939;-1.633;4.312;8.499;-0.054;0.091;-0.096;
20200920_182939;1.197;4.135;9.359;-0.044;-0.023;-0.192;
20200920_182940;-2.172;5.559;8.083;-0.053;-0.068;-0.156;
20200920_182940;0.026;4.618;6.117;-0.019;-0.089;0.087;
20200920_182940;1.087;5.174;8.313;0.060;-0.061;-0.102;
20200920_182940;0.697;3.946;7.695;-0.005;-0.075;0.005;
20200920_182940;0.002;4.784;9.045;-0.075;-0.150;-0.037;
20200920_182940;-0.275;4.611;8.222;-0.053;0.001;0.393;
20200920_182940;-0.012;3.323;8.619;-0.069;0.024;0.189;
20200920_182940;-0.706;4.142;7.226;-0.014;0.125;0.137;
20200920_182940;0.108;3.721;7.733;-0.006;0.016;-0.045;
20200920_182940;1.142;4.580;9.692;0.097;0.068;-0.106;
20200920_182941;-0.098;5.260;7.800;-0.013;-0.012;-0.192;
20200920_182941;0.017;4.812;8.978;-0.012;-0.058;-0.085;
20200920_182941;0.122;5.191;6.835;0.040;-0.018;-0.043;
20200920_182941;-0.017;4.697;8.569;0.023;-0.019;-0.036;
20200920_182941;-0.912;5.162;7.683;-0.038;-0.025;0.069;
20200920_182941;-1.556;3.649;9.586;0.053;0.073;0.218;
20200920_182941;0.326;3.831;10.343;-0.016;0.075;0.100;
20200920_182941;-0.304;4.939;8.236;0.037;0.132;-0.000;
20200920_182941;0.153;4.484;7.968;-0.058;0.113;-0.050;
20200920_182941;0.699;3.946;7.767;0.021;0.076;-0.215;
20200920_182942;0.560;4.307;8.528;0.085;0.055;-0.237;
20200920_182942;-0.062;3.998;9.313;0.014;-0.040;-0.222;
20200920_182942;-0.172;4.697;8.334;-0.022;-0.066;-0.216;
20200920_182942;0.007;3.376;7.800;0.031;-0.106;-0.129;
20200920_182942;-2.107;4.209;8.475;0.061;-0.059;-0.039;
20200920_182942;-0.697;4.379;8.207;-0.011;-0.128;0.206;
20200920_182942;-0.467;5.327;9.380;-0.013;-0.089;0.163;
20200920_182942;0.395;5.181;8.808;0.018;0.013;0.307;
20200920_182942;-0.642;4.219;9.495;-0.001;-0.001;-0.183;
20200920_182943;-0.924;4.654;9.586;0.040;0.024;-0.128;
20200920_182943;0.488;4.187;7.973;0.083;-0.055;-0.088;
20200920_182943;0.615;4.894;8.823;-0.062;-0.034;-0.074;
20200920_182943;0.864;5.406;8.119;0.084;-0.097;-0.255;
20200920_182943;-0.572;3.972;8.231;-0.039;-0.138;-0.052;
20200920_182943;-0.740;3.474;8.890;0.033;-0.091;0.128;
20200920_182943;0.479;4.324;7.968;0.030;0.009;0.188;
20200920_182943;-0.840;2.121;8.672;-0.158;-0.065;0.051;
20200920_182943;-1.384;4.803;9.263;-0.036;-0.044;0.177;
20200920_182943;0.204;5.114;8.971;0.030;-0.017;0.276;
20200920_182944;0.642;4.499;8.997;0.002;0.055;0.007;
20200920_182944;-0.551;4.585;8.157;-0.037;-0.009;-0.014;
20200920_182944;0.402;5.363;8.952;0.010;-0.001;0.095;
20200920_182944;0.342;4.590;7.939;0.089;0.051;-0.027;
20200920_182944;-0.982;5.351;8.966;0.032;0.054;0.030;
20200920_182944;0.117;4.693;7.336;0.067;0.058;0.091;
20200920_182944;0.395;6.002;7.865;-0.055;0.088;0.083;
20200920_182944;-0.103;4.398;6.570;0.086;0.089;-0.017;
20200920_182944;1.068;4.353;9.436;-0.096;0.042;-0.004;
20200920_182945;-1.003;4.820;8.662;-0.001;0.016;-0.129;
20200920_182945;-1.314;4.822;8.938;-0.015;0.013;-0.027;
20200920_182945;-0.716;6.098;8.684;-0.007;-0.075;-0.060;
20200920_182945;0.395;4.604;8.981;0.023;-0.040;0.244;
20200920_182945;1.183;5.227;7.022;0.067;0.002;-0.014;
20200920_182945;-0.263;5.713;8.396;0.071;0.053;-0.099;
20200920_182945;0.532;5.478;8.272;0.064;0.003;0.009;
20200920_182945;-0.910;4.398;7.884;0.055;0.079;0.083;
20200920_182945;-0.582;4.226;9.656;0.016;0.004;0.102;
20200920_182946;0.129;5.713;6.395;-0.012;0.024;0.099;
20200920_182946;-0.326;4.322;7.482;-0.010;0.039;0.030;
20200920_182946;-0.038;4.733;9.929;-0.003;0.015;-0.057;
20200920_182946;0.383;4.259;9.122;0.007;0.017;-0.018;
20200920_182946;0.316;3.625;9.536;-0.124;0.003;-0.102;
20200920_182946;-0.010;4.609;8.677;0.021;-0.004;-0.087;
20200920_182946;-0.089;4.997;5.607;0.105;-0.031;-0.076;
20200920_182946;-0.486;3.924;9.287;0.005;-0.036;0.063;
20200920_182946;-0.881;4.391;8.837;0.051;-0.003;0.111;
20200920_182946;1.532;4.906;8.882;0.079;0.035;0.115;
20200920_182947;-1.132;6.522;8.114;0.012;-0.049;-0.057;
20200920_182947;0.098;3.915;6.625;0.033;-0.035;0.156;
20200920_182947;0.239;5.255;11.375;-0.084;0.074;0.062;
20200920_182947;-0.227;4.322;7.372;0.061;0.021;-0.037;
20200920_182947;0.577;2.646;11.064;-0.117;0.074;0.049;
20200920_182947;-0.273;3.646;9.622;-0.029;0.122;-0.202;
20200920_182947;0.646;4.685;8.100;-0.078;0.029;-0.143;
20200920_182947;-0.594;5.420;7.788;0.010;-0.012;-0.150;
20200920_182947;0.086;5.669;7.001;0.087;-0.027;0.064;
20200920_182948;-0.012;5.040;9.730;-0.009;-0.016;0.022;
20200920_182948;-1.650;7.070;6.699;-0.165;-0.009;-0.078;
20200920_182948;0.388;5.107;7.872;0.020;-0.034;0.151;
20200920_182948;1.298;2.325;9.668;-0.085;-0.022;0.169;
20200920_182948;0.658;5.066;5.329;-0.055;-0.006;0.100;
20200920_182948;0.098;2.002;11.140;0.052;0.088;0.015;
20200920_182948;1.058;3.524;10.872;0.032;0.062;-0.258;
20200920_182948;-0.500;5.148;10.870;0.104;0.057;-0.283;
20200920_182948;-0.508;2.962;10.549;0.052;-0.063;-0.169;
20200920_182948;-1.836;5.073;6.946;0.042;-0.025;0.064;
20200920_182949;-0.053;3.821;6.943;0.150;0.015;0.152;
20200920_182949;-0.642;4.307;6.924;0.012;0.037;-0.062;
20200920_182949;-0.486;4.575;8.090;-0.003;-0.060;0.033;
20200920_182949;-0.572;4.896;10.628;0.101;-0.050;0.102;
20200920_182949;0.620;5.842;6.735;-0.035;-0.053;0.012;
20200920_182949;-0.285;5.708;8.174;0.011;0.038;0.128;
20200920_182949;1.209;5.033;9.309;0.010;-0.004;-0.163;
20200920_182949;-0.170;5.284;7.226;0.002;-0.079;-0.286;
20200920_182949;-0.642;4.288;8.624;-0.016;-0.073;-0.080;
20200920_182949;0.069;5.428;7.891;0.036;-0.071;0.033;
20200920_182950;-0.153;3.541;7.910;-0.036;-0.036;0.034;
20200920_182950;-0.436;4.575;7.389;0.017;-0.014;0.037;
20200920_182950;-1.535;6.256;8.911;0.026;-0.100;-0.045;
20200920_182950;-0.871;3.383;8.727;-0.048;-0.143;0.228;
20200920_182950;-0.326;5.069;7.559;0.064;-0.029;0.217;
20200920_182950;-0.678;5.250;7.975;-0.020;0.013;0.194;
20200920_182950;1.044;4.231;8.665;0.061;0.064;0.065;
20200920_182950;1.243;5.959;6.737;0.063;0.101;-0.194;
20200920_182950;0.019;3.996;9.292;0.021;0.063;-0.120;
20200920_182951;1.279;4.549;7.389;0.005;0.035;0.061;
20200920_182951;-1.714;5.502;6.996;0.047;0.066;-0.077;
20200920_182951;-0.706;4.441;7.628;0.065;0.051;0.045;
20200920_182951;-0.840;4.872;7.702;-0.032;0.027;0.095;
20200920_182951;-0.050;4.391;9.175;-0.025;0.031;-0.012;
20200920_182951;-0.254;5.550;6.175;-0.025;-0.001;-0.074;
20200920_182951;0.072;5.519;6.886;0.039;-0.081;-0.017;
20200920_182951;1.053;4.377;9.785;-0.016;0.084;0.159;
20200920_182951;0.328;6.158;6.543;0.115;0.029;-0.147;
20200920_182952;0.189;3.292;8.758;0.018;0.048;-0.040;
20200920_182952;-0.103;4.561;9.117;0.030;0.038;-0.121;
20200920_182952;-0.998;6.167;7.999;0.184;0.051;0.056;
20200920_182952;0.512;2.799;9.778;0.093;-0.014;0.033;
20200920_182952;-0.405;4.568;8.138;-0.010;-0.006;0.054;
20200920_182952;-0.955;4.786;8.291;-0.017;0.048;0.153;
20200920_182952;0.725;4.559;9.043;-0.046;0.098;-0.020;
20200920_182952;0.323;4.623;7.604;-0.035;0.064;-0.157;
20200920_182952;-0.383;4.556;8.540;-0.012;0.066;-0.156;
20200920_182952;1.623;4.719;8.246;0.044;-0.027;-0.335;
20200920_182953;-0.237;4.585;8.181;0.001;-0.082;-0.275;
20200920_182953;0.706;4.243;8.669;-0.065;-0.129;-0.098;
20200920_182953;-1.199;3.994;9.060;-0.052;-0.072;0.116;
20200920_182953;-0.460;4.511;8.023;0.021;-0.142;0.141;
20200920_182953;1.106;6.136;7.288;0.052;-0.091;0.083;
20200920_182953;-1.166;4.111;10.434;0.024;-0.122;0.091;
20200920_182953;-0.474;6.110;7.015;-0.058;-0.123;0.168;
20200920_182953;1.583;4.642;8.734;-0.063;-0.038;0.088;
20200920_182953;-0.611;4.997;6.146;0.039;-0.091;-0.044;
20200920_182954;0.294;6.208;7.803;-0.013;-0.027;0.182;
20200920_182954;0.175;5.418;8.260;-0.021;0.021;0.277;
20200920_182954;0.175;4.745;6.991;0.044;0.032;0.121;
20200920_182954;0.479;4.298;9.907;-0.101;0.215;0.202;
20200920_182954;0.737;4.779;9.459;-0.045;0.159;-0.015;
20200920_182954;-1.343;5.739;9.005;0.043;0.121;-0.170;
20200920_182954;-0.041;4.269;9.565;0.026;0.019;-0.171;
20200920_182954;-0.493;4.444;9.488;-0.016;0.006;-0.007;
20200920_182954;-0.225;4.999;8.990;0.010;-0.046;0.003;
20200920_182955;1.006;3.194;7.807;0.098;0.091;0.080;
20200920_182955;1.697;6.266;6.989;0.018;0.080;-0.160;
20200920_182955;-0.407;4.681;9.732;-0.064;0.030;-0.276;
20200920_182955;-0.208;6.124;6.632;0.028;-0.051;-0.224;
20200920_182955;-1.015;3.898;7.257;0.023;-0.003;0.033;
20200920_182955;0.050;2.650;8.823;-0.021;-0.041;0.087;
20200920_182955;-1.389;5.533;8.215;-0.032;-0.055;-0.047;
20200920_182955;-0.567;5.976;8.655;-0.226;-0.067;0.080;
20200920_182955;-0.302;4.231;13.987;-0.049;-0.072;0.103;
20200920_182955;-0.742;5.578;4.827;0.003;-0.109;0.092;
20200920_182956;0.050;5.567;7.288;-0.108;-0.051;0.208;
20200920_182956;0.718;5.610;10.446;-0.042;0.014;0.002;
20200920_182956;0.153;3.302;2.852;0.156;0.047;0.015;
20200920_182956;1.197;3.270;9.498;-0.129;0.042;-0.002;
20200920_182956;0.625;5.234;10.372;0.052;0.053;-0.047;
20200920_182956;-2.152;3.536;8.068;0.015;-0.020;0.021;
20200920_182956;-0.043;4.769;7.266;-0.013;-0.028;0.092;
20200920_182956;-0.606;4.796;8.966;-0.017;-0.127;0.010;
20200920_182956;-0.500;5.279;8.631;0.061;-0.093;0.118;
20200920_182957;-1.008;4.298;9.967;-0.049;-0.115;0.183;
20200920_182957;0.888;3.505;10.357;-0.169;0.049;0.315;
20200920_182957;0.819;5.595;6.771;0.018;0.087;0.075;
20200920_182957;-0.345;3.946;9.397;0.007;0.135;0.015;
20200920_182957;1.463;4.154;7.573;0.015;0.157;0.084;
20200920_182957;-0.055;4.899;9.196;-0.001;0.169;-0.004;
20200920_182957;0.218;5.246;8.068;0.021;0.131;-0.148;
20200920_182957;-0.321;3.706;10.233;-0.046;0.043;-0.200;
20200920_182957;0.201;3.572;10.537;-0.081;-0.106;-0.158;
20200920_182957;-0.407;5.533;6.919;0.045;-0.130;-0.048;
20200920_182958;-0.175;4.080;8.100;-0.069;-0.172;0.154;
20200920_182958;-0.089;5.073;9.225;-0.004;-0.060;0.335;
20200920_182958;0.800;5.598;5.504;-0.070;0.043;0.219;
20200920_182958;-0.891;4.322;8.334;-0.056;0.103;0.058;
20200920_182958;0.484;4.851;8.959;-0.013;0.130;0.105;
20200920_182958;0.891;6.469;7.417;-0.001;0.129;0.076;
20200920_182958;-0.414;6.433;9.756;0.032;0.073;-0.127;
20200920_182958;-0.730;2.717;9.120;-0.104;-0.003;-0.116;
20200920_182958;-0.481;4.757;10.197;-0.065;-0.087;0.047;
20200920_182959;0.127;5.183;8.351;-0.084;-0.087;0.164;
20200920_182959;-0.172;5.511;6.553;0.032;-0.090;0.124;
20200920_182959;0.314;5.404;5.813;0.161;0.009;0.243;
20200920_182959;0.888;5.217;8.760;0.101;0.053;0.217;
20200920_182959;-0.115;4.422;8.897;0.029;0.140;0.130;
20200920_182959;0.455;5.286;9.268;0.036;0.163;0.076;
20200920_182959;-0.534;5.198;7.408;0.020;0.154;-0.050;
20200920_182959;0.271;5.052;8.327;0.121;0.160;-0.000;
20200920_182959;-1.010;5.665;8.514;0.016;0.129;-0.011;
20200920_182959;0.007;4.013;11.028;-0.074;0.038;-0.092;
20200920_183000;0.632;3.366;6.297;0.042;0.065;-0.009;
20200920_183000;-0.259;5.021;8.677;-0.130;0.040;-0.171;
20200920_183000;0.285;4.841;7.458;0.136;0.042;-0.120;
20200920_183000;1.087;5.758;8.068;0.033;0.005;-0.171;
20200920_183000;-0.306;4.480;9.318;0.005;0.030;-0.181;
20200920_183000;0.757;5.519;6.934;-0.011;-0.018;-0.009;
20200920_183000;-0.053;4.937;6.752;0.029;0.023;0.009;
20200920_183000;-0.098;4.767;8.516;0.013;0.016;-0.153;
20200920_183000;-0.929;4.278;8.497;0.010;-0.068;0.068;
20200920_183001;-0.690;3.809;9.112;-0.010;-0.094;0.038;
20200920_183001;0.139;6.225;6.663;-0.000;-0.097;0.032;
20200920_183001;-0.627;5.437;8.080;-0.014;-0.109;-0.028;
20200920_183001;0.402;4.413;7.877;-0.018;-0.036;0.160;
20200920_183001;0.555;4.884;7.623;0.030;-0.041;0.009;
20200920_183001;-0.330;4.156;6.823;0.011;-0.006;0.069;
20200920_183001;0.690;3.926;7.755;0.049;-0.000;0.153;
20200920_183001;0.091;5.160;7.865;0.062;0.145;0.118;
20200920_183001;0.721;5.344;8.535;0.029;0.012;-0.193;
20200920_183002;-0.397;3.831;9.383;-0.048;0.058;0.004;
20200920_183002;-0.175;5.416;7.760;-0.059;-0.033;-0.035;
20200920_183002;0.086;5.507;8.770;0.030;0.035;0.012;
20200920_183002;0.781;3.472;8.375;-0.001;0.065;-0.075;
20200920_183002;-0.060;5.030;9.337;-0.066;0.035;-0.108;
20200920_183002;0.180;5.425;7.745;0.020;0.050;-0.202;
20200920_183002;-0.479;2.998;9.254;0.044;-0.022;-0.286;
20200920_183002;-1.006;5.452;8.509;0.061;-0.014;-0.025;
20200920_183002;-1.030;4.034;8.892;0.016;-0.010;0.147;
20200920_183002;-0.093;5.837;7.951;-0.000;0.030;0.016;
20200920_183003;-1.018;4.185;10.477;-0.152;0.032;-0.027;
20200920_183003;0.184;4.877;8.760;0.061;-0.077;-0.087;
20200920_183003;-0.043;5.423;6.495;0.010;-0.057;-0.014;
20200920_183003;0.029;2.404;9.225;-0.006;-0.175;0.037;
20200920_183003;0.960;4.231;8.892;-0.046;-0.112;0.106;
20200920_183003;0.563;5.092;7.724;-0.118;0.063;0.135;
20200920_183003;-0.419;3.910;9.582;-0.040;0.010;-0.151;
20200920_183003;0.278;5.389;10.319;0.053;-0.033;-0.059;
20200920_183003;-1.901;3.790;11.009;-0.115;0.009;0.061;
20200920_183004;-0.225;6.510;6.819;-0.070;0.020;0.317;
20200920_183004;0.089;3.922;10.235;-0.002;0.066;0.086;
20200920_183004;0.711;4.073;8.344;-0.087;0.057;0.075;
20200920_183004;-0.690;4.365;6.610;-0.120;0.102;-0.044;
20200920_183004;0.115;2.895;10.242;-0.143;0.088;-0.082;
20200920_183004;1.470;5.262;8.626;-0.047;-0.016;-0.408;
20200920_183004;0.285;5.717;8.064;0.113;0.036;-0.358;
20200920_183004;0.220;5.353;9.562;0.015;-0.109;-0.091;
20200920_183004;-0.754;6.086;8.363;0.051;-0.057;0.067;
20200920_183005;0.007;4.408;7.070;-0.062;-0.057;0.050;
20200920_183005;-1.070;5.543;9.541;-0.117;0.047;0.176;
20200920_183005;0.275;1.800;8.897;-0.086;-0.045;-0.154;
20200920_183005;-1.295;5.286;7.559;0.083;-0.080;-0.092;
20200920_183005;-0.622;3.390;8.085;-0.064;-0.080;0.320;
20200920_183005;-0.318;0.764;36.904;-0.289;0.035;0.067;
20200920_183005;3.306;3.381;5.614;0.081;-0.028;-0.228;
20200920_183005;-1.087;16.558;2.571;1.238;-0.128;-0.523;
20200920_183005;-3.627;4.544;9.524;0.218;-0.181;-0.016;
20200920_183005;-0.764;-0.409;10.396;0.110;0.046;0.489;
20200920_183006;0.603;7.542;9.081;-0.006;0.152;0.365;
20200920_183006;-0.371;4.116;6.773;-0.037;0.095;0.098;
20200920_183006;-0.634;3.747;8.016;-0.040;0.150;0.078;
20200920_183006;-1.209;3.994;15.265;-0.025;0.082;-0.177;
20200920_183006;1.070;4.396;1.966;-0.088;-0.060;0.099;
20200920_183006;2.875;-2.121;7.875;-0.150;0.063;-0.080;
20200920_183006;-0.029;4.017;9.129;0.111;0.064;-0.205;
20200920_183006;-1.008;5.902;8.550;-0.000;0.036;-0.025;
20200920_183006;0.390;3.543;9.986;-0.140;0.051;0.043;
20200920_183006;-0.029;7.032;7.628;-0.103;0.113;-0.047;
20200920_183007;-1.101;3.266;1.178;0.064;0.071;-0.156;
20200920_183007;0.702;1.767;14.128;0.113;0.066;-0.255;
20200920_183007;0.498;3.668;7.094;0.022;-0.044;-0.221;
20200920_183007;0.134;-0.136;8.777;-0.265;-0.078;-0.205;
20200920_183007;-1.003;3.881;7.302;0.377;-0.170;-0.425;
20200920_183007;1.901;5.382;13.324;0.034;-0.306;0.349;
20200920_183007;-1.413;11.162;3.764;0.267;-0.050;0.258;
20200920_183007;2.265;4.360;10.882;-0.059;-0.041;-0.107;
20200920_183007;0.510;5.756;8.234;-0.011;0.047;-0.035;
20200920_183008;0.330;3.704;9.857;0.067;0.056;-0.072;
20200920_183008;-0.900;4.508;8.229;-0.173;0.048;0.063;
20200920_183008;-1.829;7.750;3.074;0.146;0.167;0.280;
20200920_183008;-0.745;5.914;6.838;-0.015;0.116;-0.182;
20200920_183008;0.572;6.601;7.511;0.096;-0.094;-0.628;
20200920_183008;-1.872;6.373;8.207;-0.148;-0.171;-0.148;
20200920_183008;0.783;4.108;8.566;0.044;-0.191;0.023;
20200920_183008;-1.496;9.297;4.101;-0.101;-0.141;0.070;
20200920_183008;0.740;1.405;18.390;-0.363;-0.121;0.178;
20200920_183009;-1.513;3.151;3.268;-0.192;-0.089;0.071;
20200920_183009;0.831;-1.767;10.558;-0.076;-0.010;0.250;
20200920_183009;-0.690;3.778;4.762;0.078;-0.058;0.141;
20200920_183009;-0.328;4.662;9.041;0.034;0.029;0.211;
20200920_183009;0.728;6.606;6.160;0.226;0.056;0.111;
20200920_183009;2.037;3.338;6.120;0.136;0.100;-0.095;
20200920_183009;-0.761;5.377;9.708;0.043;-0.038;-0.321;
20200920_183009;0.347;6.043;9.076;0.093;-0.064;0.026;
20200920_183009;0.057;4.609;8.475;-0.025;-0.079;0.071;
20200920_183009;0.086;2.646;4.523;0.013;0.061;0.223;
20200920_183010;-0.278;4.020;9.385;-0.012;0.047;0.052;
20200920_183010;0.148;2.995;8.456;0.140;0.103;0.173;
20200920_183010;0.816;6.254;10.398;0.011;0.162;-0.078;
20200920_183010;-1.755;6.706;6.285;0.171;0.132;-0.147;
20200920_183010;-1.030;5.298;6.773;0.034;0.033;-0.079;
20200920_183010;0.448;4.369;5.004;0.027;-0.038;-0.333;
20200920_183010;0.187;5.272;12.380;-0.081;-0.112;-0.186;
20200920_183010;-0.199;4.712;7.559;-0.023;-0.203;-0.072;
20200920_183010;-1.010;5.152;7.403;-0.085;-0.199;0.349;
20200920_183011;-0.256;3.749;4.946;0.051;-0.022;0.375;
20200920_183011;-0.663;3.608;8.006;0.038;0.031;0.246;
20200920_183011;0.575;6.112;7.709;0.119;0.111;0.103;
20200920_183011;-0.352;3.661;10.015;-0.067;0.137;0.019;
20200920_183011;1.065;4.709;7.796;-0.082;0.089;-0.101;
20200920_183011;0.215;3.986;9.620;-0.001;0.061;-0.270;
20200920_183011;-1.556;3.998;5.689;0.048;-0.041;-0.199;
20200920_183011;0.134;5.571;8.135;0.095;-0.101;-0.051;
20200920_183011;1.080;5.844;5.820;0.105;-0.099;0.178;
20200920_183012;0.421;3.251;11.847;-0.087;0.031;0.183;
20200920_183012;0.122;4.609;6.572;0.174;0.069;0.072;
20200920_183012;0.807;3.215;8.358;0.019;0.107;-0.039;
20200920_183012;0.421;4.408;9.871;-0.087;0.036;-0.175;
20200920_183012;-1.362;6.390;7.590;0.115;0.027;-0.138;
20200920_183012;-0.958;4.496;14.291;-0.227;-0.017;-0.097;
20200920_183012;-0.486;4.099;9.692;-0.040;-0.078;-0.099;
20200920_183012;1.786;5.875;6.809;-0.109;-0.026;0.147;
20200920_183012;1.027;5.004;7.635;0.004;0.032;-0.205;
20200920_183012;-0.050;4.202;7.515;0.077;-0.077;-0.151;
20200920_183013;-1.326;3.994;3.103;0.072;-0.066;0.113;
20200920_183013;1.271;2.404;10.594;-0.194;0.018;0.193;
20200920_183013;0.426;4.829;7.633;-0.045;-0.020;-0.183;
20200920_183013;-0.029;4.049;7.700;-0.097;-0.008;-0.063;
20200920_183013;-0.160;4.822;7.441;-0.061;-0.039;-0.118;
20200920_183013;-0.599;5.104;4.712;0.111;-0.180;-0.027;
20200920_183013;0.338;3.572;7.721;-0.001;-0.167;0.185;
20200920_183013;-0.211;3.093;7.910;0.067;-0.056;0.217;
20200920_183013;0.637;0.575;11.085;-0.060;0.074;0.121;
20200920_183014;-0.057;2.346;7.738;-0.080;0.057;0.042;
20200920_183014;-1.578;5.320;9.898;-0.388;0.118;0.127;
20200920_183014;-0.476;4.331;9.567;0.073;0.070;-0.127;
20200920_183014;-0.285;1.999;14.193;-0.280;0.075;-0.058;
20200920_183014;0.982;-1.551;9.720;-0.104;-0.065;-0.278;
20200920_183014;-0.445;1.671;11.277;-0.276;-0.148;-0.053;
20200920_183014;1.245;3.697;4.075;-0.078;-0.186;0.222;
20200920_183014;1.271;4.836;7.013;-0.145;-0.153;0.229;
20200920_183014;-0.146;5.059;4.719;0.127;0.021;0.444;
20200920_183015;-0.081;5.215;10.044;0.024;0.226;0.392;
20200920_183015;2.538;2.571;8.009;0.034;0.345;0.037;
20200920_183015;2.722;3.577;7.025;-0.025;0.203;-0.822;
20200920_183015;-1.350;6.886;6.584;0.111;0.021;-0.284;
20200920_183015;-0.292;3.148;8.456;0.186;0.026;-0.121;
20200920_183015;-1.240;5.298;9.278;0.007;-0.016;0.169;
20200920_183015;0.685;6.476;11.847;-0.255;-0.051;-0.118;
20200920_183015;1.709;5.363;2.526;-0.010;-0.060;-0.046;
20200920_183015;0.249;6.357;15.938;-0.239;-0.114;-0.194;
20200920_183015;-0.400;1.906;1.405;0.095;0.097;-0.092;
20200920_183016;0.663;5.021;8.878;-0.035;-0.031;0.038;
20200920_183016;-1.216;6.323;4.638;0.142;0.173;0.183;
20200920_183016;4.391;10.554;7.525;-0.734;0.194;-0.193;
20200920_183016;-0.972;4.398;3.766;-0.199;0.117;-0.105;
20200920_183016;-2.600;-0.232;12.098;-0.268;-0.042;-0.099;
20200920_183016;3.211;3.610;8.890;0.082;-0.078;-0.470;
20200920_183016;-0.287;3.498;10.027;-0.162;-0.274;-0.222;
20200920_183016;-1.901;4.563;6.194;-0.060;-0.101;0.340;
20200920_183016;-0.388;5.054;8.373;0.047;-0.051;0.184;
20200920_183016;-0.603;4.831;7.348;0.035;0.022;0.036;
20200920_183017;-0.599;4.037;9.280;0.039;0.089;0.150;
20200920_183017;0.045;5.248;6.191;0.055;0.151;-0.041;
20200920_183017;-0.192;3.685;5.665;0.032;0.061;-0.230;
20200920_183017;-0.172;4.401;8.598;-0.023;-0.067;-0.212;
20200920_183017;-1.676;10.561;10.391;-0.150;-0.084;-0.133;
20200920_183017;0.615;2.629;2.315;0.024;-0.185;0.046;
20200920_183017;0.237;6.120;9.869;0.143;-0.107;-0.042;
20200920_183017;0.450;4.142;7.515;0.078;-0.098;-0.043;
20200920_183017;0.000;5.526;10.408;-0.034;-0.133;0.061;
20200920_183018;-1.283;4.523;6.491;0.088;-0.020;0.430;
20200920_183018;1.604;3.926;10.616;-0.124;0.088;0.262;
20200920_183018;-0.567;5.717;6.740;-0.079;0.032;0.036;
20200920_183018;0.148;3.845;7.384;0.037;-0.064;-0.104;
20200920_183018;-0.682;6.007;10.271;-0.061;-0.003;0.118;
20200920_183018;0.254;2.751;12.481;0.085;-0.085;0.120;
20200920_183018;-0.180;6.493;8.181;-0.019;-0.029;0.298;
20200920_183018;0.397;5.179;11.574;0.143;0.048;0.194;
20200920_183018;0.237;2.545;6.721;0.075;0.143;0.161;
20200920_183019;0.158;2.904;7.343;-0.091;0.190;0.163;
20200920_183019;-0.108;4.096;7.793;0.061;0.226;-0.001;
20200920_183019;1.116;4.441;7.357;0.169;0.156;-0.317;
20200920_183019;-0.101;3.603;10.393;0.104;0.088;-0.301;
20200920_183019;-0.460;4.748;8.739;-0.067;-0.006;-0.242;
20200920_183019;-1.226;4.575;10.166;-0.083;-0.022;-0.077;
20200920_183019;-0.397;6.091;7.676;-0.032;-0.159;0.036;
20200920_183019;0.527;3.934;9.313;-0.038;-0.035;0.287;
20200920_183019;0.443;3.397;8.521;-0.053;-0.027;0.025;
20200920_183019;0.441;5.787;6.299;0.033;-0.150;0.010;
20200920_183020;-1.571;4.235;8.164;-0.118;0.065;0.297;
20200920_183020;-0.254;5.624;5.952;0.035;-0.017;0.213;
20200920_183020;-1.319;6.053;8.825;0.077;0.079;-0.013;
20200920_183020;-0.230;4.029;7.345;0.006;-0.001;0.138;
20200920_183020;-1.781;6.560;7.501;0.024;0.021;-0.110;
20200920_183020;0.055;3.879;5.183;-0.015;-0.085;0.177;
20200920_183020;-0.429;6.081;8.258;-0.043;0.078;0.346;
20200920_183020;1.441;6.785;7.487;0.098;0.094;0.035;
20200920_183020;1.195;4.056;8.966;0.166;0.101;-0.268;
20200920_183021;-0.424;5.423;7.913;0.030;0.098;-0.154;
20200920_183021;-0.900;2.847;8.660;-0.040;0.108;0.032;
20200920_183021;0.192;4.403;8.181;-0.040;0.038;-0.059;
20200920_183021;-1.125;4.714;8.253;0.001;0.025;-0.048;
20200920_183021;0.199;4.729;7.417;0.033;-0.027;-0.029;
20200920_183021;0.124;5.868;7.791;0.069;-0.048;-0.019;
20200920_183021;1.185;4.192;8.109;-0.037;-0.056;0.032;
20200920_183021;1.453;4.403;7.535;0.014;-0.020;-0.104;
20200920_183021;-1.044;3.795;-2.322;0.102;-0.033;-0.063;
20200920_183021;0.563;11.918;13.305;-0.184;0.045;-0.082;
20200920_183022;0.402;18.342;5.205;-0.143;-0.008;0.177;
20200920_183022;-2.770;3.788;7.961;-0.112;0.049;-0.308;
20200920_183022;-0.486;1.858;7.070;-0.228;0.033;-0.016;
20200920_183022;-0.177;3.836;9.615;-0.097;-0.057;-0.093;
20200920_183022;1.554;4.781;5.411;0.068;-0.093;-0.161;
20200920_183022;-6.292;10.786;-1.487;0.949;0.391;-0.179;
20200920_183022;-0.764;-0.826;6.740;0.061;-0.227;0.147;
20200920_183022;-6.397;8.796;21.627;0.413;0.058;0.416;
20200920_183022;-2.449;8.088;5.717;-0.019;0.089;0.441;
20200920_183023;-0.838;4.800;9.900;0.017;0.197;0.086;
20200920_183023;-0.158;4.070;9.448;-0.072;0.089;-0.138;
20200920_183023;0.467;4.025;7.841;-0.116;0.021;-0.160;
20200920_183023;-0.783;4.781;9.759;0.102;-0.098;-0.094;
20200920_183023;-1.559;2.152;14.020;-0.134;-0.105;-0.019;
20200920_183023;1.104;1.585;5.854;0.152;-0.049;0.181;
20200920_183023;0.563;3.745;4.858;0.301;0.053;0.204;
20200920_183023;-5.720;11.947;7.207;0.377;0.217;-0.474;
20200920_183023;-2.538;11.911;6.721;0.245;0.114;-0.135;
20200920_183024;2.521;5.598;8.516;0.109;0.125;-0.216;
20200920_183024;-1.755;5.423;8.842;0.044;-0.001;-0.092;
20200920_183024;-0.311;4.137;10.123;0.031;-0.078;0.005;
20200920_183024;-0.476;5.078;7.099;0.072;-0.055;0.144;
20200920_183024;0.134;4.199;7.896;0.126;-0.077;0.053;
20200920_183024;-0.517;4.171;9.459;-0.076;-0.046;0.147;
20200920_183024;1.499;3.735;8.150;-0.116;0.047;0.121;
20200920_183024;0.713;4.750;8.748;-0.096;0.036;-0.153;
20200920_183024;-0.510;4.092;8.076;0.007;0.065;0.003;
20200920_183024;-0.263;4.041;5.918;0.043;-0.004;0.111;
20200920_183025;-1.563;5.564;7.439;-0.014;0.056;0.138;
20200920_183025;0.572;5.619;7.803;0.070;0.049;0.120;
20200920_183025;-0.424;4.618;10.417;-0.070;-0.017;-0.083;
20200920_183025;-0.402;2.945;7.087;-0.000;-0.057;-0.067;
20200920_183025;0.644;4.372;6.601;0.001;0.026;0.139;
20200920_183025;0.862;4.063;8.064;-0.017;-0.053;0.131;
20200920_183025;1.044;4.858;7.190;0.013;0.078;0.115;
20200920_183025;3.220;3.687;9.527;-0.066;0.094;-0.112;
20200920_183025;-0.534;3.405;7.872;0.033;0.040;-0.339;
20200920_183026;-1.211;6.476;8.622;-0.018;-0.081;-0.060;
20200920_183026;-0.290;2.988;9.225;-0.038;0.017;0.290;
20200920_183026;0.498;4.966;8.914;-0.058;0.038;-0.011;
20200920_183026;-0.290;4.360;8.626;0.020;0.033;-0.024;
20200920_183026;1.568;3.709;11.971;-0.113;-0.045;-0.015;
20200920_183026;-1.314;5.516;7.894;0.047;-0.106;-0.094;
20200920_183026;-0.292;3.345;10.551;-0.121;-0.077;0.346;
20200920_183026;0.721;6.366;7.216;-0.005;0.133;0.545;
20200920_183026;0.716;5.320;6.481;0.023;0.135;-0.289;
20200920_183026;0.232;2.143;10.156;-0.011;0.017;-0.304;
20200920_183027;1.762;4.503;7.834;0.044;-0.079;-0.154;
20200920_183027;0.120;5.217;9.589;-0.011;-0.062;0.003;
20200920_183027;-2.306;4.693;9.062;-0.086;-0.124;0.112;
20200920_183027;-0.737;5.464;7.599;-0.076;-0.133;0.241;
20200920_183027;-0.725;3.709;7.740;0.061;0.018;0.330;
20200920_183027;0.316;4.741;7.592;0.043;0.088;0.342;
20200920_183027;0.194;4.369;8.629;-0.005;0.141;0.183;
20200920_183027;2.825;4.858;9.476;-0.062;0.117;-0.184;
20200920_183027;-2.076;4.690;7.195;0.055;0.163;-0.064;
20200920_183028;-0.532;4.788;9.445;0.020;0.144;0.003;
20200920_183028;0.347;3.275;10.001;-0.014;0.113;-0.230;
20200920_183028;-1.099;5.373;6.716;0.032;0.046;-0.342;
20200920_183028;-0.819;4.590;8.962;-0.054;-0.081;-0.177;
20200920_183028;0.900;5.083;8.265;-0.299;-0.192;0.086;
20200920_183028;0.208;6.622;4.975;0.089;-0.148;0.260;
20200920_183028;-0.570;3.972;7.889;-0.059;-0.114;0.086;
20200920_183028;0.582;3.235;9.725;-0.157;-0.048;0.125;
20200920_183028;0.795;4.424;8.152;-0.101;-0.040;-0.025;
20200920_183028;-0.362;4.463;7.204;0.021;0.069;0.038;
20200920_183029;0.055;3.903;7.997;0.047;-0.035;-0.050;
20200920_183029;0.316;3.754;7.824;-0.115;-0.013;0.105;
20200920_183029;-0.773;5.909;7.056;0.010;-0.056;0.128;
20200920_183029;-1.827;4.992;7.997;-0.000;0.030;0.209;
20200920_183029;0.393;4.673;8.935;0.067;-0.011;0.114;
20200920_183029;0.759;5.021;8.114;0.029;-0.020;0.101;
20200920_183029;-0.438;4.120;9.840;-0.050;-0.001;-0.001;
20200920_183029;0.946;5.504;8.449;-0.075;0.003;0.063;
20200920_183029;1.329;4.271;8.868;-0.094;0.036;-0.080;
20200920_183030;-0.642;3.024;8.957;-0.037;0.022;-0.092;
20200920_183030;0.675;4.796;8.267;0.047;0.101;0.229;
20200920_183030;-0.464;3.979;9.268;-0.017;0.036;-0.008;
20200920_183030;-0.816;5.976;7.197;0.024;-0.001;0.129;
20200920_183030;-1.185;3.826;9.840;-0.087;-0.007;0.088;
20200920_183030;1.211;4.096;8.641;-0.131;0.074;0.271;
20200920_183030;-2.602;5.952;7.796;0.065;0.004;-0.018;
20200920_183030;1.884;3.644;8.765;-0.017;-0.034;0.212;
