Timestamp;Accel_x;Accel_y;Accel_z;Gyro_x;Gyro_y;Gyro_z;
20200827_195724;1.384;5.521;7.585;-0.062;0.080;-0.107;
20200827_195724;1.176;5.265;7.887;0.004;0.031;0.018;
20200827_195724;1.235;5.353;7.824;0.002;0.005;-0.007;
20200827_195724;1.101;5.449;7.764;0.006;0.007;-0.023;
20200827_195724;0.994;5.332;7.829;-0.001;-0.006;-0.029;
20200827_195724;1.128;5.358;7.812;-0.005;-0.009;-0.003;
20200827_195724;1.156;5.329;7.882;-0.010;-0.022;-0.055;
20200827_195724;0.869;5.339;7.843;-0.015;-0.027;-0.042;
20200827_195724;0.929;5.478;7.867;-0.005;0.022;0.128;
20200827_195725;0.982;5.334;7.815;-0.013;0.014;0.196;
20200827_195725;1.542;5.681;7.523;-0.034;-0.064;-0.076;
20200827_195725;1.614;5.784;7.587;-0.019;-0.063;-0.208;
20200827_195725;0.718;6.139;7.427;0.005;-0.017;-0.196;
20200827_195725;1.369;5.794;7.599;0.000;-0.050;-0.313;
20200827_195725;0.883;5.425;8.181;-0.035;-0.108;-0.410;
20200827_195725;-0.304;6.191;7.381;-0.082;-0.240;-0.644;
20200827_195725;1.142;5.837;7.860;-0.067;-0.205;-0.468;
20200827_195725;2.313;5.868;7.676;0.006;0.007;-0.057;
20200827_195725;-0.587;6.524;6.812;0.006;-0.100;-0.562;
20200827_195726;-0.503;6.859;6.390;-0.059;-0.129;-0.110;
20200827_195726;2.849;5.653;8.334;-0.020;-0.250;-0.988;
20200827_195726;-0.237;5.933;7.563;-0.020;-0.258;-1.246;
20200827_195726;-2.591;7.391;7.180;-0.004;-0.166;-0.392;
20200827_195726;-2.169;7.803;6.306;0.061;-0.045;0.366;
20200827_195726;-1.587;5.459;7.743;0.035;0.271;1.441;
20200827_195726;1.111;4.920;8.806;0.096;0.580;1.937;
20200827_195726;-0.436;5.219;6.404;0.078;0.318;0.448;
20200827_195726;3.268;9.091;10.793;-0.061;-0.117;-0.328;
20200827_195726;1.386;4.542;9.380;-0.126;-0.216;-0.598;
20200827_195727;-2.009;3.330;8.710;0.025;-0.014;0.438;
20200827_195727;3.967;4.865;8.485;0.074;0.312;1.308;
20200827_195727;3.328;4.259;8.088;0.045;-0.014;-0.434;
20200827_195727;2.351;6.278;7.887;-0.013;-0.245;-1.276;
20200827_195727;1.396;5.085;8.361;-0.029;-0.399;-1.872;
20200827_195727;-1.331;6.697;8.320;-0.032;-0.483;-1.850;
20200827_195727;-1.597;4.968;9.067;0.011;-0.440;-1.059;
20200827_195727;-2.184;5.698;7.484;0.113;-0.410;-0.443;
20200827_195727;-3.299;4.946;7.772;0.125;-0.170;0.847;
20200827_195727;0.007;4.446;7.027;0.046;0.076;1.807;
20200827_195728;2.097;5.389;7.822;-0.001;0.258;1.637;
20200827_195728;0.687;4.776;7.661;0.022;0.330;1.234;
20200827_195728;2.574;3.646;8.535;0.055;0.257;0.917;
20200827_195728;4.697;4.178;8.983;0.079;0.160;0.074;
20200827_195728;1.961;5.480;6.771;0.082;-0.036;-1.144;
20200827_195728;0.718;5.444;8.384;0.005;-0.015;-0.792;
20200827_195728;-1.314;4.882;7.894;0.015;0.069;-0.075;
20200827_195728;-1.544;5.993;8.478;0.033;0.143;0.750;
20200827_195728;1.343;6.639;7.077;0.088;0.399;1.496;
20200827_195729;2.885;4.444;9.191;0.093;0.302;0.765;
20200827_195729;2.732;5.131;7.250;0.113;0.197;-0.256;
20200827_195729;1.403;4.875;6.986;0.049;0.097;-0.581;
20200827_195729;2.610;5.521;8.126;-0.038;-0.050;-0.899;
20200827_195729;-2.492;6.060;6.438;-0.010;0.096;-0.485;
20200827_195729;-1.075;5.227;6.883;-0.006;0.165;0.468;
20200827_195729;2.143;4.853;7.843;-0.024;-0.039;-0.270;
20200827_195729;-0.316;5.023;7.185;-0.012;-0.170;-0.378;
20200827_195729;0.357;4.865;7.705;-0.011;-0.121;0.064;
20200827_195729;0.362;6.579;7.817;0.041;-0.027;0.228;
20200827_195730;1.159;4.776;8.554;0.017;-0.013;0.035;
20200827_195730;-0.383;6.115;5.040;0.043;0.010;0.079;
20200827_195730;0.711;5.691;7.111;0.094;-0.040;0.034;
20200827_195730;1.777;5.952;8.885;0.004;0.041;0.164;
20200827_195730;1.865;5.212;6.929;0.050;0.025;-0.105;
20200827_195730;0.419;5.243;8.200;0.003;0.027;-0.239;
20200827_195730;1.992;5.519;8.169;-0.024;-0.067;-0.580;
20200827_195730;2.519;3.515;8.985;-0.049;-0.125;-0.683;
20200827_195730;0.622;4.736;7.906;-0.048;-0.041;-0.558;
20200827_195731;-2.265;5.339;8.164;0.018;-0.053;-0.158;
20200827_195731;-0.534;5.234;9.110;0.001;-0.076;0.127;
20200827_195731;0.031;5.282;7.697;-0.005;0.043;0.283;
20200827_195731;0.532;5.174;7.946;0.010;-0.006;-0.074;
20200827_195731;0.247;4.911;8.823;0.000;-0.108;-0.509;
20200827_195731;0.335;5.430;8.665;0.012;-0.150;-0.611;
20200827_195731;-0.584;4.247;9.603;-0.011;-0.201;-0.502;
20200827_195731;-0.321;3.749;9.955;0.020;-0.225;-0.266;
20200827_195731;-0.314;4.252;9.582;-0.008;-0.229;-0.179;
20200827_195731;0.077;5.729;8.746;0.041;-0.186;-0.193;
20200827_195732;-0.864;5.373;9.507;0.006;-0.300;-0.424;
20200827_195732;-1.774;5.763;9.752;0.023;-0.209;-0.072;
20200827_195732;-1.104;4.671;8.253;0.034;-0.051;0.512;
20200827_195732;-0.318;6.211;8.787;0.049;-0.057;0.490;
20200827_195732;-0.110;6.306;5.839;0.043;0.052;0.769;
20200827_195732;1.824;3.546;8.241;0.008;0.128;0.411;
20200827_195732;2.054;2.737;8.327;-0.027;0.014;0.093;
20200827_195732;0.654;3.936;10.467;-0.016;0.218;0.735;
20200827_195732;1.923;6.361;7.697;0.044;0.296;0.743;
20200827_195733;2.741;4.549;5.976;0.047;0.160;-0.313;
20200827_195733;1.508;4.997;8.653;0.010;-0.067;-0.883;
20200827_195733;1.578;4.671;7.944;-0.012;-0.226;-1.283;
20200827_195733;1.343;4.240;4.017;-0.141;-0.257;-0.871;
20200827_195733;1.999;7.144;9.969;0.133;-0.112;-0.081;
20200827_195733;-0.697;6.584;7.961;0.023;0.143;0.827;
20200827_195733;-0.213;6.103;8.631;-0.034;0.161;0.733;
20200827_195733;0.153;5.703;7.472;0.074;-0.003;-0.002;
20200827_195733;-0.283;4.887;7.757;0.067;-0.005;0.051;
20200827_195733;0.201;4.623;9.584;0.065;-0.015;-0.114;
20200827_195734;0.299;5.167;8.717;-0.086;-0.166;-0.643;
20200827_195734;0.302;5.327;7.776;-0.008;-0.241;-0.569;
20200827_195734;-1.094;5.801;7.245;0.046;-0.160;0.022;
20200827_195734;-1.240;4.539;7.630;0.003;-0.013;0.834;
20200827_195734;1.487;5.854;7.891;-0.025;0.154;1.208;
20200827_195734;1.535;5.667;7.580;0.017;0.259;0.917;
20200827_195734;1.800;4.489;7.628;0.026;0.288;0.707;
20200827_195734;2.617;4.034;8.370;0.023;0.149;-0.101;
20200827_195734;1.446;4.293;8.909;0.023;0.135;-0.225;
20200827_195735;0.474;5.586;6.404;0.051;0.099;-0.246;
20200827_195735;0.445;5.928;8.753;0.014;0.111;-0.020;
20200827_195735;0.146;5.217;8.076;0.013;0.096;0.026;
20200827_195735;0.429;5.787;7.769;0.043;0.155;0.378;
20200827_195735;0.934;5.023;7.925;0.020;0.218;0.421;
20200827_195735;2.023;5.394;6.682;0.043;0.163;0.039;
20200827_195735;1.887;5.531;8.186;-0.024;0.049;-0.456;
20200827_195735;-1.061;4.372;8.729;-0.032;-0.066;-0.518;
20200827_195735;-0.290;4.005;7.719;0.047;-0.045;-0.122;
20200827_195736;0.548;4.872;7.956;0.031;-0.088;-0.157;
20200827_195736;1.678;5.533;6.330;0.035;-0.186;-0.403;
20200827_195736;-0.716;6.017;8.325;0.020;-0.080;-0.130;
20200827_195736;-0.347;6.436;7.611;0.042;-0.056;0.083;
20200827_195736;0.261;5.174;6.531;0.096;0.013;0.568;
20200827_195736;1.348;5.641;7.930;-0.053;0.075;0.387;
20200827_195736;1.417;5.164;8.253;-0.033;0.078;0.087;
20200827_195736;1.228;3.479;8.830;-0.041;-0.011;-0.161;
20200827_195736;1.463;4.135;8.248;-0.005;-0.042;-0.318;
20200827_195736;0.644;4.669;8.066;-0.013;-0.045;-0.369;
20200827_195737;-0.656;7.175;7.898;0.005;-0.089;-0.397;
20200827_195737;-1.295;5.289;7.554;0.043;-0.047;0.001;
20200827_195737;-0.484;5.655;8.464;0.048;0.002;0.373;
20200827_195737;-1.087;5.533;8.104;-0.012;0.164;0.876;
20200827_195737;2.634;5.710;6.833;-0.032;0.246;0.881;
20200827_195737;2.030;4.695;6.699;-0.082;0.202;0.054;
20200827_195737;-1.085;4.973;7.415;-0.085;0.233;0.179;
20200827_195737;-0.026;5.363;8.622;-0.113;0.037;0.101;
20200827_195737;0.759;3.239;8.657;-0.120;0.155;0.292;
20200827_195737;0.330;5.847;9.606;-0.074;0.198;-0.036;
20200827_195738;0.991;4.219;7.841;-0.080;0.039;-0.199;
20200827_195738;1.171;5.406;11.684;0.010;0.022;-0.170;
20200827_195738;0.759;4.578;9.208;-0.047;0.037;-0.075;
20200827_195738;1.769;5.169;9.919;-0.045;-0.027;-0.054;
20200827_195738;-0.749;-1.286;12.570;-0.069;-0.017;-0.254;
20200827_195738;2.145;9.445;6.127;0.051;0.037;-0.210;
20200827_195738;1.118;1.676;10.072;-0.044;-0.063;-0.425;
20200827_195738;0.400;7.286;17.279;-0.031;-0.095;-0.308;
20200827_195738;0.974;6.211;3.335;-0.066;-0.024;-0.072;
20200827_195739;1.018;5.329;12.766;0.145;0.042;0.090;
20200827_195739;0.158;6.879;12.728;-0.034;0.068;0.115;
20200827_195739;1.839;6.816;7.944;0.171;0.030;-0.310;
20200827_195739;0.644;5.622;13.005;-0.057;-0.067;-0.414;
20200827_195739;1.161;9.737;11.140;0.106;-0.110;-0.277;
20200827_195739;2.626;5.152;11.461;-0.106;-0.278;-0.638;
20200827_195739;-0.843;6.967;7.223;-0.055;-0.154;-0.821;
20200827_195739;-0.572;5.171;7.125;0.098;-0.367;-0.725;
20200827_195739;-1.966;2.892;6.412;0.126;-0.179;-0.054;
20200827_195739;-1.590;4.673;6.591;0.058;-0.170;0.291;
20200827_195740;0.498;4.470;8.464;-0.036;-0.110;0.194;
20200827_195740;0.773;4.647;8.760;-0.033;-0.155;-0.130;
20200827_195740;0.728;3.694;7.956;0.005;-0.156;-0.280;
20200827_195740;-0.376;4.645;7.041;0.014;-0.171;-0.346;
20200827_195740;-0.630;5.689;7.757;0.017;-0.174;-0.185;
20200827_195740;-2.559;4.908;7.250;0.032;-0.099;0.303;
20200827_195740;-0.429;4.326;8.430;0.039;-0.033;0.606;
20200827_195740;-0.223;5.200;7.637;0.053;0.155;0.996;
20200827_195740;0.965;4.743;8.143;0.082;0.243;0.602;
20200827_195740;0.283;4.274;8.327;0.081;0.174;0.209;
20200827_195741;0.026;5.294;8.502;-0.025;0.087;-0.014;
20200827_195741;0.072;5.444;7.511;0.042;0.059;0.046;
20200827_195741;1.300;4.719;8.969;-0.019;0.066;0.129;
20200827_195741;0.678;5.313;7.614;0.000;0.094;0.133;
20200827_195741;0.620;4.523;7.357;0.019;0.063;0.132;
20200827_195741;0.419;4.168;8.322;0.010;0.111;0.230;
20200827_195741;1.015;5.385;8.483;-0.019;0.114;0.132;
20200827_195741;0.905;5.119;6.091;0.020;0.102;0.055;
20200827_195741;0.608;3.481;7.985;-0.050;0.021;-0.125;
20200827_195742;1.942;2.708;6.701;-0.161;0.033;-0.153;
20200827_195742;1.427;5.483;12.098;0.036;0.031;-0.269;
20200827_195742;1.472;5.052;8.363;0.051;-0.074;-0.576;
20200827_195742;0.122;2.224;8.382;-0.120;-0.102;-0.520;
20200827_195742;0.541;4.017;6.697;0.161;-0.015;0.044;
20200827_195742;-2.229;3.558;7.400;0.213;0.153;0.752;
20200827_195742;1.288;5.461;8.107;0.259;0.202;0.929;
20200827_195742;1.247;5.569;2.198;0.428;0.212;0.349;
20200827_195742;2.935;3.010;7.657;0.073;0.091;-0.276;
20200827_195742;5.835;7.183;8.217;0.008;-0.406;-2.248;
20200827_195743;-0.807;5.710;8.253;-0.083;-0.546;-2.872;
20200827_195743;-3.570;3.443;8.653;0.137;-0.571;-1.572;
20200827_195743;-4.537;3.711;8.109;0.235;-0.447;-0.702;
20200827_195743;-3.802;3.850;8.945;0.210;-0.440;0.105;
20200827_195743;-4.666;3.943;7.532;0.173;-0.053;1.672;
20200827_195743;-0.546;5.598;7.137;0.088;0.178;2.088;
20200827_195743;1.824;4.772;8.066;0.037;0.299;1.910;
20200827_195743;1.267;5.842;6.886;0.054;0.279;1.151;
20200827_195743;2.682;5.265;7.173;0.008;0.107;-0.009;
20200827_195744;1.152;6.227;7.441;0.014;0.026;-0.212;
20200827_195744;1.561;4.635;8.236;-0.010;-0.154;-0.501;
20200827_195744;-1.492;5.911;9.187;-0.023;0.020;0.228;
20200827_195744;0.790;5.928;7.733;0.011;0.092;0.725;
20200827_195744;-0.306;4.199;8.827;0.013;0.331;1.586;
20200827_195744;2.545;6.759;6.115;0.159;0.459;1.463;
20200827_195744;2.047;4.671;8.399;0.156;0.383;0.577;
20200827_195744;3.191;3.780;9.105;0.148;0.245;0.222;
20200827_195744;4.436;4.784;7.211;0.157;0.216;-0.570;
20200827_195744;-0.625;4.432;7.559;0.081;0.118;-0.969;
20200827_195745;-1.051;5.128;7.513;-0.031;0.146;-0.175;
20200827_195745;1.101;5.236;7.870;-0.055;0.195;0.347;
20200827_195745;1.319;6.175;9.122;-0.068;0.164;0.166;
20200827_195745;3.072;6.512;7.652;-0.001;-0.006;-0.432;
20200827_195745;2.490;4.671;8.159;-0.053;-0.005;-0.797;
20200827_195745;-0.967;5.071;8.226;-0.073;0.041;-0.488;
20200827_195745;-1.140;6.936;8.516;-0.119;-0.018;-0.273;
20200827_195745;-0.788;5.509;8.145;-0.014;-0.045;0.034;
20200827_195745;1.164;4.642;8.337;0.004;0.009;-0.097;
20200827_195746;-2.516;4.987;8.037;-0.012;-0.112;-0.154;
20200827_195746;1.183;5.947;7.549;0.011;-0.121;0.044;
20200827_195746;0.113;5.327;7.211;0.012;-0.062;-0.033;
20200827_195746;-0.227;5.399;8.054;-0.014;-0.003;0.207;
20200827_195746;-0.048;5.490;8.674;-0.046;-0.028;0.098;
20200827_195746;-0.955;4.810;7.446;-0.007;0.027;0.229;
20200827_195746;1.329;6.756;6.038;0.080;-0.094;-0.025;
20200827_195746;3.515;6.603;6.639;-0.014;-0.043;0.166;
20200827_195746;2.425;4.470;9.443;-0.028;-0.048;-0.574;
20200827_195747;-0.175;4.357;7.752;0.000;-0.121;-0.713;
20200827_195747;0.493;6.407;6.601;0.042;-0.090;-0.181;
20200827_195747;-1.346;4.477;9.349;-0.012;0.010;0.196;
20200827_195747;-0.232;4.700;8.440;-0.014;0.069;0.418;
20200827_195747;0.350;5.636;5.648;0.005;0.204;0.737;
20200827_195747;0.776;6.074;7.649;-0.005;0.288;0.477;
20200827_195747;1.293;4.391;7.228;-0.008;0.160;-0.073;
20200827_195747;0.800;4.678;8.511;0.010;-0.013;-0.601;
20200827_195747;0.532;6.117;11.305;-0.030;-0.139;-0.714;
20200827_195747;1.824;4.506;7.896;0.022;-0.239;-0.760;
20200827_195748;-0.347;5.447;6.670;0.035;-0.261;-0.512;
20200827_195748;-0.898;6.263;8.298;0.037;-0.225;-0.273;
20200827_195748;0.378;4.252;5.234;0.058;-0.286;-0.162;
20200827_195748;-0.876;4.578;8.677;-0.014;-0.178;0.086;
20200827_195748;-1.243;4.511;8.234;0.061;-0.062;0.500;
20200827_195748;-0.105;5.533;7.685;0.038;0.045;0.875;
20200827_195748;1.343;4.278;6.888;0.016;0.114;0.401;
20200827_195748;2.354;6.306;10.300;0.000;0.068;-0.046;
20200827_195748;-0.819;5.219;7.824;-0.041;0.164;0.172;
20200827_195749;-0.543;4.760;4.647;-0.036;0.118;0.289;
20200827_195749;2.444;4.796;9.354;0.001;-0.063;-0.092;
20200827_195749;-1.116;6.199;5.784;0.016;-0.074;-0.279;
20200827_195749;-1.736;4.934;6.862;0.025;-0.045;0.254;
20200827_195749;-0.259;3.986;20.267;-0.138;-0.001;0.658;
20200827_195749;1.697;4.764;7.803;-0.051;0.036;0.503;
20200827_195749;0.790;5.447;17.013;-0.184;0.121;0.445;
20200827_195749;0.170;6.689;-0.620;0.260;0.164;0.057;
20200827_195749;-0.943;-0.773;24.272;0.049;0.385;0.065;
20200827_195750;1.080;4.934;6.098;0.049;0.272;-0.193;
20200827_195750;-2.550;7.956;10.065;-0.051;0.350;-0.017;
20200827_195750;-2.093;9.337;9.795;0.038;0.106;-0.587;
20200827_195750;0.017;6.108;5.624;0.061;0.014;-0.765;
20200827_195750;0.637;3.941;10.242;0.045;-0.210;-0.456;
20200827_195750;-1.343;8.408;5.464;-0.002;0.034;0.193;
20200827_195750;4.032;3.979;10.757;-0.015;-0.240;-0.655;
20200827_195750;1.142;8.911;6.812;-0.036;-0.463;-1.292;
20200827_195750;0.366;6.074;7.927;0.075;-0.484;-0.881;
20200827_195750;-2.061;3.472;11.667;0.103;-0.310;0.037;
20200827_195751;-1.434;4.104;10.501;-0.022;-0.075;0.879;
20200827_195751;-0.761;6.402;6.962;0.057;0.076;0.652;
20200827_195751;0.898;3.903;8.061;-0.021;0.022;0.090;
20200827_195751;1.092;6.833;8.811;-0.061;-0.020;-0.291;
20200827_195751;-0.982;4.714;9.041;-0.070;-0.155;-0.291;
20200827_195751;-0.742;5.188;12.215;-0.094;-0.158;0.096;
20200827_195751;-1.147;4.882;6.024;0.097;0.174;0.911;
20200827_195751;1.894;4.381;10.997;-0.004;-0.096;-0.142;
20200827_195751;1.389;6.778;5.478;0.032;-0.095;-0.251;
20200827_195751;0.725;4.963;8.528;0.030;-0.230;-0.610;
20200827_195752;-0.340;4.142;10.623;0.001;-0.079;0.169;
20200827_195752;-1.350;3.984;10.977;-0.044;0.185;0.850;
20200827_195752;2.217;6.735;6.792;0.021;0.288;0.899;
20200827_195752;2.890;4.614;7.235;0.068;0.287;0.217;
20200827_195752;0.409;5.847;8.964;0.031;0.213;-0.418;
20200827_195752;2.442;6.431;6.991;-0.021;0.033;-0.858;
20200827_195752;-1.065;4.310;9.843;-0.109;-0.111;-0.689;
20200827_195752;-1.681;4.523;9.091;0.013;0.052;0.165;
20200827_195752;1.231;6.098;7.508;-0.052;0.017;0.020;
20200827_195753;2.207;4.496;12.383;-0.022;-0.242;-0.603;
20200827_195753;1.089;5.562;5.713;0.069;-0.198;-0.281;
20200827_195753;0.486;3.670;10.908;0.010;-0.112;0.044;
20200827_195753;-1.391;5.272;9.069;0.020;-0.022;0.066;
20200827_195753;0.448;5.789;10.937;-0.032;0.087;0.524;
20200827_195753;0.558;4.942;10.724;-0.030;0.112;-0.005;
20200827_195753;1.975;4.556;11.044;0.002;-0.011;-0.504;
20200827_195753;-0.127;6.804;8.329;-0.017;-0.052;-0.548;
20200827_195753;-1.185;3.551;7.891;0.011;-0.202;-0.366;
20200827_195753;-1.037;3.105;8.894;-0.045;-0.196;0.225;
20200827_195754;0.654;5.298;9.148;0.039;0.051;0.752;
20200827_195754;3.929;6.182;8.028;-0.131;0.087;0.331;
20200827_195754;2.804;6.464;4.120;-0.073;-0.128;-0.587;
20200827_195754;0.357;4.032;9.155;-0.003;-0.153;-0.821;
20200827_195754;-1.238;4.800;7.673;0.017;-0.097;-0.075;
20200827_195754;1.820;6.019;12.268;-0.034;-0.085;0.358;
20200827_195754;-0.649;4.475;6.155;-0.006;-0.020;0.105;
20200827_195754;0.941;5.466;6.584;0.212;0.185;1.392;
20200827_195754;-0.498;6.591;2.126;-0.022;0.330;0.753;
20200827_195755;-1.860;5.315;9.325;0.027;0.230;0.421;
20200827_195755;-1.099;4.958;9.287;0.018;0.196;-0.020;
20200827_195755;1.111;5.830;7.216;0.034;0.086;-0.287;
20200827_195755;1.367;4.731;7.858;0.034;-0.111;-0.565;
20200827_195755;1.439;7.681;5.071;0.069;-0.077;-0.179;
20200827_195755;-0.443;4.164;9.843;-0.029;-0.162;-0.392;
20200827_195755;-0.733;4.410;10.491;0.008;-0.027;0.231;
20200827_195755;0.069;7.003;5.758;0.044;0.179;0.539;
20200827_195755;2.500;4.156;9.218;-0.082;-0.088;-0.336;
20200827_195756;-2.277;4.934;6.950;0.001;0.118;0.207;
20200827_195756;-0.424;6.196;4.820;0.077;0.199;0.667;
20200827_195756;-1.245;5.437;7.728;0.054;0.095;0.098;
20200827_195756;0.850;6.484;9.900;0.098;0.039;-0.079;
20200827_195756;-1.120;5.796;4.932;0.022;0.119;0.117;
20200827_195756;3.333;4.592;5.938;0.003;0.033;-0.203;
20200827_195756;1.470;5.183;6.481;0.057;0.095;-0.397;
20200827_195756;0.670;5.109;9.517;-0.008;0.015;-0.452;
20200827_195756;2.258;5.385;9.907;0.034;-0.177;-0.668;
20200827_195756;-0.802;5.313;6.503;0.026;-0.136;-0.483;
20200827_195757;-2.035;5.387;8.150;0.033;-0.133;0.144;
20200827_195757;-1.156;5.152;8.420;-0.082;-0.009;0.625;
20200827_195757;0.175;5.203;8.698;-0.023;0.039;0.411;
20200827_195757;1.209;5.303;8.993;0.017;-0.033;-0.095;
20200827_195757;-0.570;4.542;8.262;0.016;-0.047;-0.089;
20200827_195757;1.757;3.735;5.959;0.001;-0.095;-0.074;
20200827_195757;1.523;6.167;7.305;0.013;-0.085;-0.308;
20200827_195757;0.299;5.143;9.108;-0.007;-0.074;-0.328;
20200827_195757;-1.657;3.804;7.216;0.020;-0.018;0.142;
20200827_195758;-0.496;4.685;6.687;0.059;0.033;0.368;
20200827_195758;0.464;5.298;8.648;0.021;0.042;0.155;
20200827_195758;-0.417;6.038;6.869;-0.040;0.066;0.187;
20200827_195758;-1.211;4.563;9.225;0.065;0.140;0.352;
20200827_195758;1.786;4.108;7.930;-0.015;0.090;0.063;
20200827_195758;0.936;5.964;9.002;0.010;0.053;-0.292;
20200827_195758;1.413;3.120;11.270;-0.083;-0.050;-0.346;
20200827_195758;0.323;6.153;9.498;-0.076;-0.090;-0.378;
20200827_195758;0.132;4.585;9.869;-0.057;-0.128;-0.269;
20200827_195759;-0.649;4.164;8.574;-0.093;-0.028;-0.165;
20200827_195759;2.205;6.237;8.954;-0.007;-0.082;0.004;
20200827_195759;-1.413;4.228;7.436;0.053;-0.125;-0.229;
20200827_195759;-0.180;6.764;8.203;0.037;-0.050;0.268;
20200827_195759;-1.125;4.908;7.968;0.031;0.095;0.624;
20200827_195759;0.244;4.197;8.442;-0.006;-0.032;0.043;
20200827_195759;3.189;7.111;8.229;0.067;0.023;-0.183;
20200827_195759;-0.373;4.288;7.796;0.057;-0.051;-0.384;
20200827_195759;0.381;5.974;5.152;0.053;-0.116;-0.288;
20200827_195759;1.097;4.214;11.353;-0.074;-0.096;-0.033;
20200827_195800;-0.781;3.335;7.223;-0.041;-0.074;-0.071;
20200827_195800;1.077;5.385;8.689;0.006;0.069;0.276;
20200827_195800;-0.388;3.955;6.644;-0.020;0.156;0.346;
20200827_195800;1.913;4.003;7.365;-0.030;0.130;-0.034;
20200827_195800;-0.524;4.525;7.934;-0.038;0.088;-0.325;
20200827_195800;1.753;3.958;7.367;-0.025;-0.179;-0.736;
20200827_195800;-0.496;5.751;10.618;0.060;-0.156;-0.427;
20200827_195800;-1.027;4.362;7.860;0.148;-0.157;-0.068;
20200827_195800;-1.135;5.186;9.165;0.048;-0.093;0.189;
20200827_195801;1.425;5.243;8.947;0.000;-0.176;-0.066;
20200827_195801;2.018;3.692;8.590;-0.102;0.006;0.055;
20200827_195801;0.278;4.343;6.033;-0.020;-0.096;-0.243;
20200827_195801;-0.900;3.934;9.950;-0.037;-0.027;-0.132;
20200827_195801;-0.323;4.743;9.835;-0.041;-0.066;-0.080;
20200827_195801;-0.807;5.054;5.497;0.014;-0.040;0.075;
20200827_195801;0.989;3.160;25.067;0.043;-0.096;-0.022;
20200827_195801;0.534;2.258;7.896;0.014;-0.204;0.023;
20200827_195801;-0.144;0.622;-7.537;0.239;-0.126;0.073;
20200827_195801;-2.725;1.714;9.067;0.179;0.057;0.419;
20200827_195802;-0.843;10.120;10.532;-0.008;0.006;0.262;
20200827_195802;1.238;4.712;9.392;-0.142;-0.002;0.089;
20200827_195802;-0.551;1.183;12.450;0.013;0.030;0.032;
20200827_195802;-1.611;5.859;9.601;0.052;0.232;0.400;
20200827_195802;1.238;5.001;5.988;0.011;0.248;0.235;
20200827_195802;1.798;6.081;6.893;-0.007;0.200;-0.152;
20200827_195802;1.058;4.353;11.818;-0.061;0.027;-0.366;
20200827_195802;-0.077;3.402;10.044;0.133;-0.091;-0.437;
20200827_195802;-1.659;5.904;8.191;0.076;-0.118;-0.118;
20200827_195802;0.060;4.635;7.108;0.038;-0.053;0.188;
20200827_195803;0.821;5.387;7.951;-0.096;0.048;0.179;
20200827_195803;1.848;6.881;8.732;-0.056;-0.055;-0.477;
20200827_195803;-0.093;3.050;15.091;-0.021;-0.029;-0.241;
20200827_195803;2.059;4.240;9.538;0.060;-0.106;-0.062;
20200827_195803;0.170;5.662;11.073;0.014;0.046;0.341;
20200827_195803;0.144;8.973;6.768;0.063;0.051;0.258;
20200827_195803;-1.106;5.428;8.033;-0.036;0.135;0.384;
20200827_195803;1.516;5.337;7.946;-0.066;0.003;0.022;
20200827_195803;0.795;5.701;9.610;0.022;-0.000;-0.154;
20200827_195804;0.338;3.450;9.177;-0.070;0.021;-0.183;
20200827_195804;2.514;6.218;6.948;0.053;-0.062;-0.326;
20200827_195804;0.618;3.397;9.335;-0.017;-0.040;-0.293;
20200827_195804;-1.118;5.593;6.110;0.062;-0.087;-0.144;
20200827_195804;0.960;5.325;6.725;-0.015;0.015;0.424;
20200827_195804;-0.524;4.044;8.351;-0.014;0.063;0.127;
20200827_195804;-0.639;7.106;8.097;0.008;0.067;0.279;
20200827_195804;0.972;5.322;7.887;-0.008;0.055;-0.070;
20200827_195804;1.855;6.472;8.176;-0.025;-0.087;-0.327;
20200827_195804;-0.915;4.611;4.511;0.098;-0.017;-0.146;
20200827_195805;0.804;5.452;7.831;-0.001;-0.090;-0.210;
20200827_195805;0.180;5.231;8.698;0.002;-0.051;-0.094;
20200827_195805;0.029;3.278;9.749;-0.159;-0.073;-0.010;
20200827_195805;-0.371;4.736;6.859;-0.049;0.039;0.350;
20200827_195805;0.828;5.737;8.590;0.114;0.086;0.182;
20200827_195805;-2.116;7.092;3.098;0.050;0.124;0.256;
20200827_195805;-0.577;5.294;7.901;0.076;0.136;0.494;
20200827_195805;0.766;3.759;7.319;0.036;0.186;0.400;
20200827_195805;1.858;5.485;10.192;-0.047;0.043;-0.535;
20200827_195806;10.669;1.358;-8.068;0.103;-0.859;-2.772;
20200827_195806;-9.347;7.130;-17.157;0.602;-0.093;-0.106;
20200827_195806;2.191;1.125;0.237;0.412;0.833;1.703;
20200827_195806;5.674;1.678;8.449;-0.136;0.215;0.757;
20200827_195806;2.722;7.039;7.860;0.012;0.129;-0.291;
20200827_195806;0.694;5.171;8.799;0.096;0.196;-0.031;
20200827_195806;-2.145;6.919;8.880;-0.028;0.280;0.232;
20200827_195806;0.072;5.030;14.607;-0.040;0.086;0.109;
20200827_195806;2.239;4.147;7.341;-0.027;0.051;-0.379;
20200827_195807;1.551;3.120;5.128;-0.005;0.081;0.103;
20200827_195807;2.490;6.515;4.460;0.041;-0.020;-0.681;
20200827_195807;2.112;5.593;7.635;0.206;-0.250;-1.257;
20200827_195807;-1.209;2.641;12.218;0.066;-0.126;-0.385;
20200827_195807;3.170;9.445;20.631;-0.080;-0.294;-0.169;
20200827_195807;-2.705;3.081;7.884;-0.008;-0.123;0.106;
20200827_195807;-5.986;-3.285;9.534;-0.116;-0.011;0.623;
20200827_195807;0.491;2.746;16.170;-0.250;-0.046;0.396;
20200827_195807;0.893;5.310;7.544;-0.018;-0.035;0.221;
20200827_195807;-0.431;4.300;7.123;-0.030;-0.072;0.039;
20200827_195808;0.199;5.282;11.700;-0.027;-0.050;0.250;
20200827_195808;0.970;5.875;11.401;-0.152;0.007;0.189;
20200827_195808;2.064;4.752;7.956;-0.343;0.084;0.300;
20200827_195808;0.311;4.056;11.542;0.093;0.088;0.331;
20200827_195808;0.436;5.253;11.712;0.053;0.307;0.614;
20200827_195808;1.022;5.349;2.667;0.047;0.280;0.403;
20200827_195808;-1.132;4.087;5.918;-0.129;0.331;0.237;
20200827_195808;5.279;4.271;1.058;0.132;0.102;-0.336;
20200827_195808;-1.312;4.345;13.642;0.033;0.040;-0.422;
20200827_195809;2.227;-1.120;3.721;0.095;-0.059;-0.525;
20200827_195809;-1.051;9.742;8.679;-0.506;-0.066;-0.080;
20200827_195809;1.712;5.746;6.517;0.018;-0.073;0.105;
20200827_195809;-0.414;-1.894;11.868;-0.088;0.080;0.005;
20200827_195809;-0.383;8.411;14.873;0.355;0.188;0.243;
20200827_195809;0.869;3.658;9.598;0.008;0.051;-0.059;
20200827_195809;-0.287;5.387;7.664;0.005;0.112;-0.175;
20200827_195809;1.360;4.085;10.010;0.123;-0.118;-0.389;
20200827_195809;-1.712;4.087;6.136;0.107;-0.132;-0.148;
20200827_195810;0.809;6.019;6.553;0.088;-0.146;0.037;
20200827_195810;0.292;4.334;5.351;-0.076;-0.058;-0.045;
20200827_195810;-0.005;3.625;7.578;-0.094;-0.002;0.171;
20200827_195810;0.642;5.401;9.354;-0.013;0.054;0.174;
20200827_195810;0.139;4.906;7.175;0.088;0.080;0.088;
20200827_195810;1.396;4.786;10.209;-0.055;0.008;-0.136;
20200827_195810;-0.840;4.073;9.002;-0.033;0.071;0.029;
20200827_195810;2.239;5.842;8.626;-0.061;0.058;0.029;
20200827_195810;0.879;4.492;8.770;0.092;-0.023;-0.357;
20200827_195810;0.438;5.629;6.424;0.080;-0.081;-0.330;
20200827_195811;1.106;4.197;9.656;-0.015;-0.172;-0.428;
20200827_195811;-2.224;2.930;9.191;-0.131;-0.057;-0.182;
20200827_195811;-0.678;5.253;7.925;-0.032;-0.052;0.046;
20200827_195811;-0.563;5.133;10.527;-0.050;-0.069;-0.038;
20200827_195811;-0.773;4.616;8.246;-0.014;0.063;0.291;
20200827_195811;-1.331;4.496;7.302;-0.008;-0.059;-0.098;
20200827_195811;0.661;4.736;10.173;0.027;-0.125;-0.361;
20200827_195811;0.065;5.555;7.305;0.038;-0.127;-0.161;
20200827_195811;-0.603;6.019;6.460;0.002;-0.146;-0.097;
20200827_195812;1.317;4.044;8.756;-0.033;-0.136;0.119;
20200827_195812;-1.221;4.551;6.742;0.014;-0.048;0.250;
20200827_195812;2.227;4.997;5.744;0.141;-0.066;0.142;
20200827_195812;0.443;7.513;10.084;-0.055;0.065;0.331;
20200827_195812;0.759;5.236;9.776;-0.032;0.122;0.082;
20200827_195812;-0.239;3.721;8.758;-0.041;0.079;0.318;
20200827_195812;3.096;4.757;6.117;0.077;0.036;-0.091;
20200827_195812;-0.838;4.034;10.843;0.000;0.049;0.102;
20200827_195812;0.622;6.474;6.869;-0.001;0.070;0.023;
20200827_195813;1.458;4.925;6.390;0.069;0.086;-0.257;
20200827_195813;1.386;4.156;6.246;0.039;0.094;0.088;
20200827_195813;1.966;4.913;7.266;0.016;0.162;0.069;
20200827_195813;0.294;6.759;4.858;-0.021;0.164;0.079;
20200827_195813;-0.048;4.530;8.253;0.019;0.105;-0.234;
20200827_195813;-0.424;4.824;11.983;-0.052;-0.149;-0.502;
20200827_195813;2.693;9.208;10.719;0.033;-0.255;-0.160;
20200827_195813;-0.915;4.065;6.886;0.060;-0.192;0.195;
20200827_195813;0.812;4.927;8.037;-0.002;-0.063;0.394;
20200827_195813;2.045;4.973;7.772;0.015;-0.023;-0.085;
20200827_195814;-0.256;4.338;10.570;-0.070;-0.031;-0.210;
20200827_195814;-0.184;5.420;8.578;-0.053;-0.013;0.090;
20200827_195814;-1.092;5.954;9.337;0.033;0.086;0.309;
20200827_195814;2.217;5.708;10.757;0.045;0.151;0.245;
20200827_195814;-0.752;4.702;9.639;-0.061;0.106;-0.072;
20200827_195814;-1.446;4.688;7.178;-0.057;0.088;-0.054;
20200827_195814;-0.752;4.985;6.357;0.045;-0.033;-0.030;
20200827_195814;1.523;5.727;4.800;0.061;-0.051;-0.085;
20200827_195814;0.955;4.424;10.257;0.013;-0.041;-0.155;
20200827_195815;1.875;5.990;11.490;-0.122;-0.156;-0.311;
20200827_195815;0.062;2.667;8.092;0.002;-0.087;-0.243;
20200827_195815;-1.147;4.606;5.454;0.035;-0.088;0.002;
20200827_195815;-0.939;4.326;9.438;-0.015;-0.015;0.425;
20200827_195815;0.974;5.887;7.207;0.030;0.048;0.488;
20200827_195815;0.065;6.067;7.807;0.015;0.086;0.096;
20200827_195815;0.139;6.103;6.622;0.058;0.063;-0.056;
20200827_195815;0.773;5.207;6.378;0.038;0.009;-0.039;
20200827_195815;0.704;4.685;6.381;0.036;-0.058;-0.205;
20200827_195815;-1.140;4.360;8.689;-0.059;-0.014;0.032;
20200827_195816;1.018;6.155;7.616;0.008;-0.019;0.009;
20200827_195816;0.781;5.294;9.045;-0.001;-0.044;-0.052;
20200827_195816;1.144;4.061;5.909;-0.011;-0.099;-0.080;
20200827_195816;-1.829;3.895;5.770;0.069;0.091;0.299;
20200827_195816;0.565;4.939;9.390;-0.002;0.026;0.174;
20200827_195816;0.129;5.818;7.918;0.044;0.108;0.035;
20200827_195816;-0.931;5.504;8.444;0.052;0.107;0.171;
20200827_195816;0.294;3.802;6.201;-0.074;0.133;0.180;
20200827_195816;0.141;4.305;3.534;0.078;0.070;-0.017;
20200827_195817;0.934;5.602;9.852;0.043;0.009;-0.360;
20200827_195817;0.168;4.978;9.345;-0.001;-0.108;-0.403;
20200827_195817;-0.208;5.598;4.484;0.097;-0.089;-0.196;
20200827_195817;0.658;5.447;13.506;-0.043;-0.096;-0.031;
20200827_195817;0.385;4.223;11.258;-0.142;-0.057;0.190;
20200827_195817;-0.622;5.030;6.692;0.027;-0.036;0.136;
20200827_195817;0.503;3.924;8.602;0.041;0.046;0.270;
20200827_195817;-0.290;4.247;11.607;0.044;0.052;0.238;
20200827_195817;0.036;6.823;7.590;0.055;0.184;0.332;
20200827_195817;1.109;4.082;7.853;-0.011;0.109;0.075;
20200827_195818;2.579;3.522;9.392;-0.146;0.053;-0.297;
20200827_195818;-0.012;7.377;6.574;-0.108;0.022;-0.315;
20200827_195818;0.522;4.381;9.890;-0.056;-0.068;-0.155;
20200827_195818;0.716;6.596;9.979;0.012;-0.112;0.059;
20200827_195818;1.942;6.519;10.288;-0.031;-0.108;-0.034;
20200827_195818;0.350;3.788;10.424;0.026;-0.008;0.080;
20200827_195818;1.391;4.231;9.242;-0.052;-0.025;0.083;
20200827_195818;0.388;6.127;5.399;-0.011;0.072;0.122;
20200827_195818;0.955;4.053;10.245;-0.039;0.106;0.233;
20200827_195818;0.704;5.818;11.729;-0.007;0.165;0.123;
20200827_195819;0.381;4.884;8.765;0.008;0.066;-0.182;
20200827_195819;1.705;3.761;10.180;0.037;-0.042;-0.330;
20200827_195819;0.761;2.959;9.969;-0.040;-0.072;-0.391;
20200827_195819;1.195;4.848;9.452;-0.064;-0.149;-0.058;
20200827_195819;1.219;5.018;9.340;-0.040;-0.092;0.082;
20200827_195819;-0.048;3.455;12.893;-0.034;-0.060;0.101;
20200827_195819;0.848;3.946;9.977;-0.002;-0.000;0.004;
20200827_195819;-0.381;2.579;6.579;0.035;0.065;0.135;
20200827_195819;-1.267;1.307;4.865;-0.010;0.087;0.059;
20200827_195819;1.180;5.097;8.550;0.021;-0.010;-0.118;
20200827_195820;-0.860;6.479;10.494;-0.007;0.015;0.029;
20200827_195820;-0.472;2.667;7.949;0.002;-0.000;0.091;
20200827_195820;0.879;3.120;7.652;-0.155;0.062;0.135;
20200827_195820;0.086;5.212;11.035;-0.074;0.068;0.058;
20200827_195820;2.021;3.900;9.400;0.005;0.031;-0.186;
20200827_195820;0.800;5.930;10.458;-0.015;0.023;-0.256;
20200827_195820;2.545;4.554;13.769;-0.108;-0.015;-0.319;
20200827_195820;0.244;4.731;5.136;0.032;-0.061;-0.601;
20200827_195820;0.658;3.180;8.215;0.077;-0.129;-0.394;
20200827_195821;-1.283;5.286;8.590;-0.021;-0.225;-0.285;
20200827_195821;-0.136;4.853;11.116;-0.041;-0.385;-0.077;
20200827_195821;-1.013;4.709;13.125;0.017;-0.209;0.452;
20200827_195821;-1.516;2.847;-0.441;0.055;-0.069;0.558;
20200827_195821;0.601;2.624;11.265;-0.100;-0.024;0.539;
20200827_195821;3.364;0.599;10.120;-0.145;0.062;0.429;
20200827_195821;1.817;5.741;10.245;-0.018;0.057;0.041;
20200827_195821;3.342;1.065;7.757;-0.083;-0.065;-0.261;
20200827_195821;0.769;5.083;13.791;-0.338;0.117;-0.016;
20200827_195821;1.731;4.501;6.771;0.026;0.184;0.069;
20200827_195822;1.156;6.472;8.885;0.061;0.039;-0.467;
20200827_195822;-0.127;5.653;12.464;-0.142;0.017;-0.044;
20200827_195822;0.323;4.310;11.332;-0.201;0.040;-0.026;
20200827_195822;-0.362;6.407;10.867;-0.250;-0.014;-0.106;
20200827_195822;-0.036;4.942;8.763;0.130;0.128;0.011;
20200827_195822;1.211;5.502;0.546;0.204;-0.018;-0.159;
20200827_195822;-2.526;11.111;4.140;0.211;0.157;-0.252;
20200827_195822;1.877;5.018;6.378;0.038;-0.050;-0.308;
20200827_195822;1.822;21.162;7.192;0.292;-0.079;0.173;
20200827_195823;-0.472;6.261;8.849;0.147;0.026;0.246;
20200827_195823;2.114;4.906;11.444;0.083;0.014;-0.046;
20200827_195823;-2.088;4.530;5.705;0.048;0.149;0.258;
20200827_195823;1.937;4.468;11.729;0.079;0.071;0.038;
20200827_195823;-2.375;4.853;9.785;-0.019;0.264;0.238;
20200827_195823;2.291;3.227;10.860;-0.012;-0.026;-0.310;
20200827_195823;-0.239;4.377;8.361;-0.124;-0.066;-0.523;
20200827_195823;0.256;6.191;11.073;-0.125;-0.159;-0.087;
20200827_195823;0.316;4.566;9.404;-0.008;-0.072;0.087;
20200827_195824;3.117;4.997;12.479;-0.020;-0.089;-0.243;
20200827_195824;-0.757;3.704;10.285;-0.078;-0.095;-0.293;
20200827_195824;-0.953;4.128;5.193;0.035;-0.112;0.053;
20200827_195824;-0.393;5.260;11.439;-0.084;-0.034;0.158;
20200827_195824;-2.547;3.785;9.488;-0.022;0.090;0.387;
20200827_195824;1.724;5.658;6.366;0.114;0.022;0.043;
20200827_195824;0.029;3.199;8.480;-0.099;-0.108;-0.354;
20200827_195824;-1.085;6.728;7.307;-0.012;-0.060;0.020;
20200827_195824;0.230;4.520;12.273;-0.077;-0.077;0.302;
20200827_195824;1.554;4.911;9.807;-0.070;0.026;0.433;
20200827_195825;0.484;3.699;5.265;0.042;0.065;0.001;
20200827_195825;1.058;3.524;6.912;0.006;0.097;-0.121;
20200827_195825;-0.522;3.687;7.611;0.038;0.125;-0.133;
20200827_195825;-0.936;4.154;5.820;-0.008;0.072;-0.113;
20200827_195825;-0.235;2.430;7.889;-0.024;-0.030;-0.383;
20200827_195825;-2.593;3.869;-3.596;0.034;0.030;-0.173;
20200827_195825;-0.084;4.764;11.071;-0.103;-0.056;0.111;
20200827_195825;0.821;14.236;9.850;0.165;-0.058;-0.074;
20200827_195825;0.259;3.311;6.905;0.036;-0.010;-0.024;
20200827_195826;-1.329;3.651;6.500;0.151;-0.000;0.307;
20200827_195826;1.360;4.487;9.452;-0.045;0.004;0.123;
20200827_195826;3.213;5.023;10.159;0.017;-0.046;-0.234;
20200827_195826;0.986;4.563;13.642;-0.127;-0.033;-0.302;
20200827_195826;-1.195;4.015;5.231;0.098;0.162;0.303;
20200827_195826;-0.242;2.899;9.491;0.002;-0.061;-0.217;
20200827_195826;2.239;3.845;9.424;0.039;-0.140;-0.536;
20200827_195826;-3.467;3.400;9.414;0.061;-0.073;0.026;
20200827_195826;0.259;4.685;10.635;-0.119;-0.123;0.285;
20200827_195826;-0.424;5.114;1.379;-0.167;-0.016;0.305;
20200827_195827;3.536;5.186;-3.788;0.463;0.015;0.292;
20200827_195827;1.178;2.844;3.625;-0.030;-0.053;-0.283;
20200827_195827;2.394;13.048;29.595;0.104;0.029;0.145;
20200827_195827;2.210;0.747;10.606;-0.211;-0.018;0.117;
20200827_195827;0.931;6.072;9.948;0.096;0.277;0.111;
20200827_195827;0.381;5.710;8.071;0.005;0.251;-0.173;
20200827_195827;0.809;2.097;8.801;-0.048;0.074;-0.541;
20200827_195827;-0.086;4.020;8.765;-0.133;-0.008;-0.518;
20200827_195827;-0.460;3.721;9.400;-0.100;-0.145;-0.378;
20200827_195828;-0.412;3.371;7.101;-0.023;-0.214;-0.204;
20200827_195828;-1.338;4.755;8.432;-0.011;-0.180;0.387;
20200827_195828;-0.098;3.790;9.589;-0.050;-0.107;0.211;
20200827_195828;0.843;5.938;5.842;-0.070;-0.073;-0.080;
20200827_195828;1.348;5.622;6.989;-0.023;-0.039;-0.127;
20200827_195828;1.053;5.344;6.191;-0.085;-0.025;0.134;
20200827_195828;-1.408;8.578;-6.175;0.805;-0.012;-0.108;
20200827_195828;-0.366;13.317;6.914;-0.018;0.017;0.209;
20200827_195828;-1.829;10.266;9.493;-0.032;-0.029;0.085;
20200827_195828;0.745;8.226;11.346;-0.211;-0.040;-0.058;
20200827_195829;0.141;4.796;6.354;0.051;0.007;0.277;
20200827_195829;-0.970;2.550;7.992;-0.030;-0.016;0.151;
20200827_195829;2.274;5.212;9.038;-0.111;0.129;0.327;
20200827_195829;2.679;5.332;7.602;-0.081;-0.075;-0.434;
20200827_195829;0.534;3.156;9.610;-0.065;-0.092;-0.405;
20200827_195829;-1.053;4.094;9.328;-0.096;-0.046;0.263;
20200827_195829;-0.836;4.906;7.084;0.012;0.090;0.370;
20200827_195829;-0.182;4.427;7.331;-0.052;0.080;0.221;
20200827_195829;-0.433;3.651;6.093;0.080;0.120;0.154;
20200827_195830;0.527;3.318;8.066;0.046;0.071;-0.138;
20200827_195830;0.041;6.325;6.448;0.116;0.072;0.008;
20200827_195830;0.275;2.993;3.788;0.021;0.084;0.065;
20200827_195830;1.693;5.279;12.067;0.103;-0.053;-0.276;
20200827_195830;-0.160;16.671;22.982;-0.578;0.084;-0.627;
20200827_195830;1.245;1.058;18.804;-0.323;-0.052;-0.254;
20200827_195830;5.586;26.954;0.524;0.320;-0.045;0.039;
20200827_195830;-2.859;7.989;-5.619;-0.059;0.092;-0.204;
20200827_195830;-1.717;4.379;7.503;0.127;-0.079;0.200;
20200827_195830;0.706;3.180;9.668;-0.034;0.020;-0.118;
20200827_195831;0.132;6.084;10.463;0.018;0.034;-0.023;
20200827_195831;1.463;2.193;10.195;-0.081;0.024;-0.175;
20200827_195831;1.633;4.958;19.053;-0.157;-0.123;-0.640;
20200827_195831;-0.445;3.589;7.882;-0.223;-0.165;-0.118;
20200827_195831;0.136;5.358;6.778;0.006;-0.126;0.156;
20200827_195831;1.099;4.348;8.578;0.097;-0.042;0.440;
20200827_195831;1.080;4.630;6.620;0.077;0.076;0.440;
20200827_195831;0.848;7.283;7.087;0.019;0.105;0.182;
20200827_195831;2.528;4.934;9.419;-0.109;0.058;-0.058;
20200827_195832;0.802;4.901;6.249;0.049;0.038;-0.105;
20200827_195832;-0.189;3.994;6.455;0.179;0.003;-0.070;
20200827_195832;-0.560;3.955;8.147;0.053;0.074;-0.016;
20200827_195832;0.661;5.332;11.756;-0.095;-0.022;-0.160;
20200827_195832;0.654;2.691;9.500;-0.043;0.032;0.007;
20200827_195832;0.115;5.188;7.654;0.086;0.069;-0.142;
20200827_195832;-0.103;3.440;6.747;0.071;0.056;-0.242;
20200827_195832;-1.623;4.896;6.637;-0.035;-0.035;-0.250;
20200827_195832;0.352;4.492;12.337;-0.050;-0.078;-0.073;
20200827_195832;-1.432;6.953;5.849;0.095;-0.084;-0.038;
20200827_195833;0.184;2.818;5.696;-0.064;-0.153;-0.001;
20200827_195833;0.187;5.349;8.006;-0.044;-0.067;0.140;
20200827_195833;0.761;5.624;7.582;0.095;-0.047;0.022;
20200827_195833;0.158;4.147;5.748;0.051;-0.111;-0.022;
20200827_195833;-0.340;4.590;7.096;-0.060;-0.017;0.204;
20200827_195833;-0.958;5.152;5.866;0.051;0.002;0.283;
20200827_195833;0.022;5.061;2.758;0.062;0.038;0.216;
20200827_195833;0.615;5.119;4.681;0.167;0.116;0.138;
20200827_195833;1.731;6.574;8.387;0.068;0.099;-0.143;
20200827_195834;0.845;3.010;4.523;0.044;-0.023;-0.475;
20200827_195834;0.350;4.314;14.059;-0.045;-0.117;-0.161;
20200827_195834;-1.312;5.198;8.071;-0.074;-0.134;0.180;
20200827_195834;0.512;4.144;6.426;-0.069;0.014;0.539;
20200827_195834;2.231;5.978;7.338;0.198;0.068;0.111;
20200827_195834;0.979;2.186;6.934;0.038;-0.097;-0.532;
20200827_195834;-0.467;3.261;6.529;0.177;0.116;0.166;
20200827_195834;-2.148;3.931;8.985;0.039;0.131;0.251;
20200827_195834;-0.711;7.559;9.378;-0.067;0.030;0.108;
20200827_195834;0.759;2.816;7.317;-0.048;0.063;-0.079;
20200827_195835;-0.812;5.662;12.268;0.043;0.123;0.055;
20200827_195835;2.116;3.591;10.817;-0.006;-0.057;-0.170;
20200827_195835;-3.000;7.465;1.592;0.050;-0.079;-0.568;
20200827_195835;-3.103;7.357;10.082;0.071;-0.014;0.037;
20200827_195835;1.274;5.138;7.230;0.092;-0.129;-0.143;
20200827_195835;1.204;5.732;10.906;-0.313;-0.116;0.120;
20200827_195835;3.555;10.527;6.055;0.199;0.075;0.232;
20200827_195835;-0.596;6.115;6.036;0.021;0.083;-0.133;
20200827_195835;2.119;6.900;6.687;0.050;-0.002;-0.426;
20200827_195836;-1.650;5.057;5.701;0.082;0.029;0.048;
20200827_195836;0.223;4.087;6.582;-0.006;-0.085;0.181;
20200827_195836;-1.539;3.515;-0.972;0.411;-0.056;0.027;
20200827_195836;0.297;3.531;11.193;-0.074;-0.067;-0.035;
20200827_195836;1.511;2.523;18.002;-0.335;-0.104;0.075;
20200827_195836;-0.560;5.112;34.091;-0.171;0.041;-0.041;
20200827_195836;-0.548;4.326;5.995;0.311;0.078;-0.177;
20200827_195836;0.869;16.824;6.922;0.370;0.043;0.051;
20200827_195836;-0.962;4.460;5.502;0.004;0.155;-0.063;
20200827_195837;1.144;6.596;4.228;0.070;0.075;-0.035;
20200827_195837;0.764;5.057;7.312;-0.002;0.026;-0.110;
20200827_195837;0.895;4.266;8.353;-0.007;-0.073;-0.460;
20200827_195837;1.030;3.998;13.537;-0.074;-0.174;-0.404;
20200827_195837;-1.027;5.739;7.360;-0.036;-0.230;-0.082;
20200827_195837;-1.906;5.499;8.499;0.015;-0.173;0.426;
20200827_195837;0.448;6.416;6.610;-0.043;-0.047;0.471;
20200827_195837;-0.326;5.274;6.124;0.087;0.043;0.336;
20200827_195837;1.147;7.412;10.609;-0.048;0.086;0.153;
20200827_195837;0.486;2.081;13.544;-0.117;0.068;0.023;
20200827_195838;1.298;4.535;2.691;0.286;0.165;-0.237;
20200827_195838;-0.160;6.768;5.009;0.158;0.035;-0.337;
20200827_195838;-1.085;-0.045;8.495;-0.202;-0.040;-0.051;
20200827_195838;-1.073;3.608;10.187;-0.074;0.003;0.253;
20200827_195838;1.058;3.800;7.738;0.033;-0.013;0.008;
20200827_195838;0.089;4.468;7.108;0.053;0.008;-0.068;
20200827_195838;-0.553;2.916;8.825;0.012;0.018;0.046;
20200827_195838;0.397;5.030;10.242;0.030;0.042;0.030;
20200827_195838;-1.369;2.677;8.732;-0.005;0.033;0.173;
20200827_195839;0.429;3.888;8.088;-0.019;0.075;0.169;
20200827_195839;0.352;5.016;6.045;-0.024;0.065;0.022;
20200827_195839;0.254;4.159;3.519;0.083;0.100;-0.010;
20200827_195839;0.709;5.950;9.400;-0.135;-0.017;-0.152;
20200827_195839;-0.022;3.089;6.369;-0.116;0.027;0.034;
20200827_195839;0.529;4.920;13.367;-0.141;0.039;-0.082;
20200827_195839;1.240;3.852;4.503;0.132;0.022;-0.036;
20200827_195839;-1.025;2.246;6.914;0.151;-0.035;-0.094;
20200827_195839;-0.227;3.021;7.738;-0.014;-0.048;0.008;
20200827_195840;-0.929;4.405;10.573;0.053;0.018;0.096;
20200827_195840;0.309;5.308;12.778;-0.125;-0.038;0.056;
20200827_195840;0.347;2.318;9.491;0.008;0.045;0.033;
20200827_195840;0.328;5.827;9.258;0.067;-0.018;-0.007;
20200827_195840;-0.067;3.826;5.971;0.046;0.032;0.092;
20200827_195840;-0.419;4.738;17.142;-0.035;0.040;0.032;
20200827_195840;0.625;3.709;8.186;-0.139;0.010;-0.009;
20200827_195840;0.235;3.151;6.766;0.189;0.062;0.020;
20200827_195840;-0.596;6.402;10.874;-0.072;-0.036;-0.010;
20200827_195840;0.227;4.657;4.618;-0.001;0.094;0.151;
20200827_195841;1.188;4.693;7.046;0.048;-0.003;-0.240;
20200827_195841;-0.644;4.245;6.613;0.081;-0.000;-0.078;
20200827_195841;0.371;4.353;12.349;0.018;0.024;0.024;
20200827_195841;0.611;5.167;11.428;-0.071;-0.063;-0.155;
20200827_195841;0.204;5.246;8.243;-0.043;-0.026;-0.013;
20200827_195841;0.304;4.367;10.930;-0.037;-0.097;-0.087;
20200827_195841;0.134;4.255;10.805;0.067;-0.080;-0.011;
20200827_195841;-0.936;4.063;10.884;-0.005;-0.022;0.162;
20200827_195841;0.599;4.580;9.692;-0.160;-0.067;0.193;
20200827_195842;0.024;4.774;10.082;-0.079;0.056;0.142;
20200827_195842;0.436;4.671;5.892;-0.005;0.024;0.119;
20200827_195842;0.218;4.551;6.682;0.103;0.065;0.069;
20200827_195842;-0.622;5.650;8.021;0.088;0.095;0.068;
20200827_195842;0.608;4.343;8.856;-0.010;0.117;0.013;
20200827_195842;0.745;5.464;8.016;-0.010;0.106;-0.167;
20200827_195842;0.567;4.408;12.002;-0.074;0.031;-0.198;
20200827_195842;0.848;4.125;5.741;0.065;-0.007;-0.209;
20200827_195842;0.845;5.488;12.809;0.047;-0.017;-0.172;
20200827_195843;-0.661;5.456;5.844;0.081;-0.068;-0.165;
20200827_195843;0.735;6.349;12.208;-0.074;-0.111;-0.082;
20200827_195843;-0.864;6.029;12.270;0.057;-0.117;-0.028;
20200827_195843;-0.196;4.221;8.552;0.050;-0.078;0.238;
20200827_195843;-0.180;2.993;9.409;-0.095;-0.055;0.093;
20200827_195843;0.218;4.446;5.157;0.012;0.008;0.160;
20200827_195843;0.086;5.387;15.069;0.029;0.034;0.017;
20200827_195843;0.294;2.624;12.452;-0.015;-0.013;0.178;
20200827_195843;0.658;9.787;3.955;-0.031;0.043;0.123;
20200827_195843;1.707;7.092;14.878;-0.202;0.011;-0.036;
20200827_195844;0.522;7.353;-0.010;0.041;0.087;0.093;
20200827_195844;1.202;3.467;0.476;-0.047;0.055;0.021;
20200827_195844;0.093;4.290;3.670;0.049;0.068;-0.012;
20200827_195844;1.439;6.000;8.942;-0.031;0.029;-0.101;
20200827_195844;0.084;4.262;-5.775;0.240;0.049;-0.117;
20200827_195844;0.192;5.861;12.210;0.199;0.007;-0.149;
20200827_195844;0.575;4.190;9.742;0.008;-0.013;-0.010;
20200827_195844;-0.204;6.682;8.911;0.101;-0.061;0.022;
20200827_195844;0.771;4.937;14.032;-0.289;-0.019;0.039;
20200827_195845;-0.441;3.740;5.895;-0.057;0.002;0.090;
20200827_195845;0.970;6.012;9.055;0.039;-0.000;0.002;
20200827_195845;-0.048;4.290;9.993;-0.004;-0.001;-0.066;
20200827_195845;1.403;5.413;8.428;0.001;-0.023;0.103;
20200827_195845;0.788;4.056;10.683;-0.102;0.025;0.033;
20200827_195845;0.728;4.300;8.638;0.032;-0.031;-0.027;
20200827_195845;-0.464;3.479;9.448;0.009;0.013;0.114;
20200827_195845;-0.251;3.316;9.692;-0.134;0.004;-0.042;
20200827_195845;-0.273;3.812;8.897;0.055;0.046;0.026;
20200827_195845;-0.807;3.266;11.198;-0.052;0.050;0.019;
20200827_195846;-0.491;3.900;11.272;-0.080;0.013;0.048;
20200827_195846;-0.287;3.754;9.402;0.015;0.040;0.044;
20200827_195846;-0.026;2.772;9.352;-0.049;-0.010;-0.078;
20200827_195846;1.037;6.426;7.034;-0.065;-0.026;-0.005;
20200827_195846;-0.790;4.788;10.719;-0.057;0.006;0.081;
20200827_195846;-0.062;4.506;8.957;0.148;0.014;0.008;
20200827_195846;1.458;2.978;11.720;-0.011;-0.055;0.002;
20200827_195846;-0.053;3.943;9.910;0.031;0.050;0.191;
20200827_195846;-0.010;5.839;8.715;0.054;0.003;-0.005;
20200827_195847;1.365;4.374;7.470;-0.061;0.002;-0.072;
20200827_195847;-0.833;4.101;8.475;-0.030;0.120;0.157;
20200827_195847;-0.062;4.089;8.871;0.013;0.098;0.005;
20200827_195847;0.443;3.891;10.300;-0.034;0.064;-0.087;
20200827_195847;-0.108;4.568;8.035;-0.008;0.007;-0.227;
20200827_195847;-0.132;4.503;5.387;0.192;0.001;0.017;
20200827_195847;1.966;4.700;15.483;-0.473;-0.138;-0.230;
20200827_195847;0.996;7.072;11.904;-0.117;-0.063;-0.220;
20200827_195847;-0.752;1.130;10.139;-0.031;-0.113;0.134;
20200827_195847;-0.045;-0.769;10.858;-0.139;-0.056;0.271;
20200827_195848;-0.862;5.567;10.353;-0.060;-0.043;0.307;
20200827_195848;0.759;5.176;7.228;-0.001;0.100;0.267;
20200827_195848;1.669;5.444;8.665;0.049;0.030;0.024;
20200827_195848;-0.285;3.821;7.348;0.082;0.096;0.226;
20200827_195848;0.673;4.408;8.356;0.094;0.107;0.086;
20200827_195848;0.946;3.826;9.407;-0.011;0.027;-0.223;
20200827_195848;0.218;5.758;8.787;0.079;0.037;-0.013;
20200827_195848;-0.637;4.535;11.935;0.047;0.058;0.021;
20200827_195848;0.067;4.269;8.260;0.023;0.006;0.025;
20200827_195849;0.795;3.510;6.874;-0.047;0.089;0.120;
20200827_195849;-0.271;3.433;8.691;-0.059;0.082;0.035;
20200827_195849;0.939;3.124;7.752;-0.063;0.037;-0.147;
20200827_195849;0.982;5.042;4.999;0.021;0.002;-0.091;
20200827_195849;1.130;3.867;3.625;-0.013;0.009;-0.008;
20200827_195849;-0.397;3.910;12.040;0.066;0.020;-0.187;
20200827_195849;1.173;4.032;8.674;0.185;-0.102;-0.202;
20200827_195849;0.050;5.538;6.601;0.175;-0.060;-0.030;
20200827_195849;0.103;4.851;9.505;0.142;-0.107;0.069;
20200827_195849;-0.290;3.120;8.724;-0.100;-0.036;0.229;
20200827_195850;-1.056;5.634;6.780;-0.014;0.071;0.406;
20200827_195850;-0.244;2.411;9.582;0.088;-0.006;0.158;
20200827_195850;0.057;3.299;12.206;0.013;0.121;0.152;
20200827_195850;-0.273;4.571;10.314;0.060;0.132;0.109;
20200827_195850;2.320;3.481;3.907;0.411;0.106;-0.080;
20200827_195850;0.826;2.852;3.010;-0.036;0.043;-0.276;
20200827_195850;1.245;4.123;8.392;-0.083;0.033;-0.228;
20200827_195850;0.754;4.549;8.861;-0.039;0.024;-0.231;
20200827_195850;-2.152;5.035;9.328;0.201;-0.057;-0.181;
20200827_195850;3.141;3.055;7.353;0.151;-0.165;-0.067;
20200827_195851;-2.547;5.224;7.599;-0.090;-0.155;-0.094;
20200827_195851;0.414;3.579;8.531;-0.064;-0.215;0.006;
20200827_195851;-0.821;3.919;3.321;0.201;-0.075;0.416;
20200827_195851;0.433;5.217;11.918;0.100;-0.059;0.434;
20200827_195851;0.333;3.385;10.350;-0.071;0.032;0.268;
20200827_195851;0.429;8.056;8.365;-0.008;0.114;0.226;
20200827_195851;1.621;4.372;7.317;-0.089;0.211;0.040;
20200827_195851;0.804;3.519;9.816;-0.117;0.188;-0.087;
20200827_195851;2.176;4.961;9.574;-0.120;0.099;-0.263;
20200827_195852;-0.062;3.701;9.910;-0.056;0.034;-0.312;
20200827_195852;-0.261;3.711;9.572;0.142;-0.079;-0.334;
20200827_195852;-1.149;4.274;7.374;0.113;-0.059;-0.006;
20200827_195852;-0.086;2.399;7.762;-0.082;-0.098;0.147;
20200827_195852;1.209;4.099;7.731;-0.118;-0.046;0.072;
20200827_195852;-0.321;4.384;11.310;-0.100;-0.121;-0.301;
20200827_195852;0.919;4.561;8.930;0.020;-0.129;-0.098;
20200827_195852;-0.936;2.959;9.663;0.060;-0.101;0.160;
20200827_195852;-0.895;3.850;7.760;0.063;-0.027;0.496;
20200827_195852;0.824;4.453;10.142;-0.079;0.070;0.333;
20200827_195853;0.227;5.672;8.459;-0.061;0.157;0.266;
20200827_195853;2.184;5.380;10.527;0.020;0.144;-0.125;
20200827_195853;1.504;3.979;10.939;-0.020;0.013;-0.409;
20200827_195853;0.010;4.621;5.940;0.013;-0.097;-0.232;
20200827_195853;-0.931;4.269;5.480;0.026;-0.060;0.231;
20200827_195853;-0.582;4.137;7.973;0.053;-0.090;0.337;
20200827_195853;-0.570;4.530;8.377;0.002;0.024;0.405;
20200827_195853;1.274;4.075;9.996;-0.022;0.119;0.294;
20200827_195853;0.883;4.755;19.146;-0.137;0.147;0.247;
20200827_195854;2.492;5.262;8.581;0.080;0.193;-0.197;
20200827_195854;0.541;6.282;2.650;0.068;0.141;-0.457;
20200827_195854;0.299;3.405;12.809;-0.036;0.091;-0.246;
20200827_195854;0.199;4.614;13.127;-0.086;0.105;-0.195;
20200827_195854;-0.062;7.199;6.038;0.126;-0.043;-0.266;
20200827_195854;2.179;5.744;6.893;0.078;-0.085;0.063;
20200827_195854;-0.603;3.180;7.417;-0.010;-0.158;-0.088;
20200827_195854;0.000;3.431;7.726;-0.063;-0.144;-0.264;
20200827_195854;-0.192;5.595;4.712;-0.030;-0.202;-0.081;
20200827_195854;-0.151;4.997;8.009;0.115;-0.094;0.324;
20200827_195855;-2.895;0.060;-19.637;0.276;0.121;0.101;
20200827_195855;-1.362;3.419;6.766;-0.149;0.132;0.243;
20200827_195855;-3.172;-14.909;-4.848;-1.205;0.189;-0.048;
20200827_195855;0.807;-1.894;8.806;-0.477;-0.022;-0.227;
20200827_195855;0.706;7.460;15.845;0.243;-0.053;-0.107;
20200827_195855;1.013;8.871;13.132;0.315;-0.224;-0.214;
20200827_195855;-2.265;0.199;9.819;0.142;-0.110;0.149;
20200827_195855;0.077;7.800;5.739;0.004;0.022;0.655;
20200827_195855;1.341;-3.311;4.966;-0.048;0.114;0.365;
20200827_195856;1.573;2.813;3.055;0.055;0.239;0.201;
20200827_195856;2.124;4.666;9.402;0.147;0.198;-0.066;
20200827_195856;1.434;12.198;15.847;-0.460;-0.043;-0.353;
20200827_195856;0.994;15.390;7.525;0.022;-0.009;-0.297;
20200827_195856;-0.682;4.214;5.413;0.058;0.009;-0.137;
20200827_195856;-0.599;3.232;12.596;-0.008;-0.113;-0.165;
20200827_195856;-0.414;1.267;6.680;0.055;0.043;0.563;
20200827_195856;1.209;2.526;10.783;-0.023;-0.002;0.118;
20200827_195856;-0.077;2.842;12.503;-0.051;0.050;-0.145;
20200827_195857;2.746;4.784;6.625;0.038;0.008;-0.118;
20200827_195857;0.189;3.302;10.398;0.106;-0.042;-0.201;
20200827_195857;0.364;1.999;12.409;0.008;-0.091;-0.177;
20200827_195857;0.462;4.123;10.501;-0.019;0.058;0.183;
20200827_195857;1.334;5.191;10.001;0.005;0.078;0.354;
20200827_195857;2.871;4.673;6.622;0.012;-0.074;-0.413;
20200827_195857;2.926;5.672;6.658;0.097;-0.165;-0.109;
20200827_195857;-0.031;6.642;1.580;0.013;0.008;0.289;
20200827_195857;-0.704;5.483;10.221;0.081;0.004;0.533;
20200827_195858;-1.891;4.056;16.154;0.029;0.043;0.381;
20200827_195858;2.116;5.241;10.654;-0.080;-0.041;-0.090;
20200827_195858;3.369;4.113;5.957;-0.146;0.060;-0.141;
20200827_195858;-1.003;4.951;3.855;0.206;0.259;0.449;
20200827_195858;-1.235;7.843;-5.303;0.045;0.112;-0.150;
20200827_195858;0.577;1.353;6.888;0.147;0.074;0.018;
20200827_195858;-0.917;4.073;10.894;0.068;0.052;-0.136;
20200827_195858;-2.622;-0.041;-5.902;-0.007;0.143;0.178;
20200827_195858;4.341;7.362;14.157;0.074;0.487;0.335;
20200827_195858;-0.706;7.731;11.856;0.136;0.097;0.227;
20200827_195859;3.146;-2.523;16.417;-0.269;-0.107;-0.597;
20200827_195859;1.130;6.510;7.669;0.038;-0.047;-0.655;
20200827_195859;-0.213;4.939;8.899;0.038;0.015;-0.036;
20200827_195859;0.268;3.299;9.862;-0.064;-0.060;-0.189;
20200827_195859;0.848;4.683;2.646;0.016;-0.027;-0.052;
20200827_195859;-0.601;6.153;7.209;0.065;0.006;0.063;
20200827_195859;0.460;3.335;12.783;-0.100;-0.179;-0.284;
20200827_195859;0.845;2.387;11.679;-0.076;-0.310;-0.436;
20200827_195859;3.029;8.633;5.725;-0.143;-0.349;-0.366;
20200827_195900;-0.225;9.232;6.163;0.115;-0.173;0.432;
20200827_195900;-3.627;3.847;9.342;-0.064;0.037;0.462;
20200827_195900;2.971;4.824;-0.038;0.144;0.088;0.694;
20200827_195900;1.456;7.214;6.464;-0.124;0.042;0.027;
20200827_195900;-0.543;10.113;7.295;0.083;0.011;0.076;
20200827_195900;0.737;6.223;2.756;0.127;-0.009;0.082;
20200827_195900;-1.437;2.670;8.531;0.028;0.128;0.352;
20200827_195900;-2.021;5.088;9.919;0.018;0.202;0.611;
20200827_195900;1.116;4.422;7.635;-0.028;0.113;-0.099;
20200827_195900;0.996;3.804;8.701;-0.067;0.133;-0.081;
20200827_195901;1.353;4.779;10.487;0.079;0.171;0.030;
20200827_195901;2.018;3.598;10.551;-0.158;0.088;-0.148;
20200827_195901;0.958;4.611;3.551;-0.015;-0.027;-0.497;
20200827_195901;0.702;3.936;6.665;0.023;-0.014;-0.189;
20200827_195901;-2.650;5.260;1.247;0.137;0.022;0.085;
20200827_195901;0.831;2.842;2.298;0.176;-0.052;-0.105;
20200827_195901;-0.749;5.981;9.380;-0.007;0.053;0.088;
20200827_195901;1.322;2.385;7.374;0.039;-0.059;-0.110;
20200827_195901;1.760;6.369;14.703;-0.169;-0.131;-0.272;
20200827_195902;2.971;4.001;2.923;0.013;-0.196;-0.329;
20200827_195902;-1.654;9.577;9.972;0.259;-0.034;-0.079;
20200827_195902;-1.750;0.026;5.784;0.127;-0.114;0.210;
20200827_195902;-0.747;10.321;8.114;0.127;0.079;0.350;
20200827_195902;0.120;9.002;-0.939;0.119;0.062;0.112;
20200827_195902;-0.486;4.621;9.673;0.015;0.152;0.091;
20200827_195902;0.385;4.307;12.641;-0.050;0.001;0.013;
20200827_195902;0.601;3.977;1.712;0.159;0.032;-0.145;
20200827_195902;-0.373;4.281;14.269;-0.077;-0.059;-0.111;
20200827_195902;1.185;3.041;4.657;-0.031;-0.081;0.008;
20200827_195903;-0.170;3.048;5.732;-0.076;-0.043;-0.065;
20200827_195903;0.728;5.001;6.553;-0.154;-0.087;0.293;
20200827_195903;1.544;0.587;2.971;-0.151;-0.002;0.146;
20200827_195903;1.130;8.155;12.617;-0.041;0.045;0.139;
20200827_195903;-0.601;4.446;8.832;0.041;0.103;0.353;
20200827_195903;-2.286;4.683;14.617;-0.021;0.233;0.566;
20200827_195903;1.015;5.792;8.140;0.068;0.184;0.148;
20200827_195903;2.744;0.737;0.946;0.080;0.250;-0.277;
20200827_195903;0.057;7.269;6.019;-0.001;0.155;-0.579;
20200827_195904;-2.286;7.290;13.206;-0.037;-0.092;-0.325;
20200827_195904;-1.008;-4.120;54.837;-0.699;-0.214;-0.353;
20200827_195904;-2.128;8.265;20.181;0.232;-0.057;0.392;
20200827_195904;3.608;20.676;-1.717;0.058;-0.005;0.020;
20200827_195904;2.301;2.200;5.418;0.042;0.086;0.186;
20200827_195904;-0.599;5.109;7.910;0.006;0.068;-0.229;
20200827_195904;-1.068;4.841;3.864;0.025;-0.009;-0.163;
20200827_195904;0.199;4.604;1.391;0.071;-0.040;0.030;
20200827_195904;-0.117;2.923;6.512;0.009;0.017;-0.044;
20200827_195904;0.570;1.362;5.727;-0.098;-0.030;-0.143;
20200827_195905;0.821;5.320;10.853;-0.134;-0.137;-0.106;
20200827_195905;0.110;2.263;4.920;0.059;-0.053;0.107;
20200827_195905;-0.606;4.583;4.252;0.093;-0.061;-0.094;
20200827_195905;0.766;3.915;9.701;0.057;-0.114;-0.015;
20200827_195905;0.113;3.455;6.618;-0.012;-0.039;0.216;
20200827_195905;0.560;3.742;9.881;-0.082;-0.042;0.292;
20200827_195905;2.320;3.730;9.088;-0.066;0.039;0.243;
20200827_195905;1.101;5.001;11.392;-0.059;0.026;-0.017;
20200827_195905;-0.160;3.721;6.694;0.015;0.111;0.030;
20200827_195906;-0.287;5.818;6.450;0.091;0.052;-0.105;
20200827_195906;1.080;3.998;9.268;-0.043;0.040;-0.075;
20200827_195906;0.792;4.238;14.186;-0.110;-0.080;-0.113;
20200827_195906;0.572;4.561;7.355;0.037;-0.026;-0.031;
20200827_195906;0.438;6.754;9.067;0.016;-0.064;-0.076;
20200827_195906;0.335;3.572;7.585;0.044;-0.090;0.093;
20200827_195906;-0.718;3.512;3.864;0.117;0.023;0.258;
20200827_195906;0.012;2.954;8.174;0.090;0.011;0.176;
20200827_195906;-0.390;4.089;9.084;-0.068;0.115;0.203;
20200827_195906;-0.333;4.266;8.933;-0.159;0.137;0.078;
20200827_195907;1.437;5.784;14.902;-0.018;0.111;-0.107;
20200827_195907;0.814;4.233;6.261;0.098;0.086;-0.244;
20200827_195907;0.994;2.421;7.379;-0.028;0.017;-0.176;
20200827_195907;1.477;4.329;8.600;-0.068;0.035;-0.313;
20200827_195907;-0.716;5.155;5.612;0.182;-0.089;-0.113;
20200827_195907;-1.355;3.938;8.942;0.062;-0.044;0.121;
20200827_195907;0.888;0.567;12.084;-0.147;-0.016;0.129;
20200827_195907;0.730;4.829;10.874;-0.079;0.091;0.042;
20200827_195907;1.061;3.510;6.943;0.042;0.108;-0.096;
20200827_195908;1.279;4.149;12.005;-0.084;0.076;-0.127;
20200827_195908;-0.553;5.636;6.723;-0.098;0.083;-0.144;
20200827_195908;0.108;6.060;4.951;0.059;0.068;-0.114;
20200827_195908;1.120;4.096;8.734;0.126;-0.063;-0.542;
20200827_195908;-1.113;2.796;8.492;0.019;-0.154;-0.345;
20200827_195908;-1.243;5.543;9.570;-0.006;-0.152;-0.041;
20200827_195908;-0.876;2.480;7.482;-0.016;-0.121;0.150;
20200827_195908;-0.570;5.409;6.891;0.034;-0.100;0.248;
20200827_195908;0.869;3.785;12.596;-0.003;-0.010;0.001;
20200827_195908;0.290;3.869;7.726;-0.069;0.050;0.037;
20200827_195909;-0.081;5.492;13.391;0.011;0.148;-0.113;
20200827_195909;1.990;5.133;14.954;-0.167;0.019;-0.568;
20200827_195909;-0.510;2.993;6.455;0.043;-0.192;-0.688;
20200827_195909;-0.268;2.552;8.464;0.066;-0.159;-0.179;
20200827_195909;-1.477;5.866;10.647;-0.050;-0.049;0.011;
20200827_195909;0.596;4.252;6.141;-0.013;-0.166;-0.181;
20200827_195909;-0.778;3.508;7.851;0.003;-0.130;-0.113;
20200827_195909;0.493;5.191;7.482;-0.051;-0.175;-0.113;
20200827_195909;-0.306;3.926;12.538;-0.025;-0.115;-0.179;
20200827_195910;1.508;4.302;10.937;-0.004;-0.123;-0.167;
20200827_195910;0.910;5.602;4.350;0.108;-0.152;-0.145;
20200827_195910;-0.055;2.954;10.080;0.008;-0.018;0.109;
20200827_195910;0.972;7.372;8.112;-0.032;0.013;-0.137;
20200827_195910;1.183;6.201;4.135;0.068;-0.171;-0.484;
20200827_195910;0.515;4.539;12.275;0.073;-0.385;-0.395;
20200827_195910;-0.742;7.276;2.986;0.189;-0.328;0.470;
20200827_195910;-1.231;4.779;11.157;0.077;-0.203;0.685;
20200827_195910;1.231;3.548;8.617;0.045;-0.194;0.754;
20200827_195910;1.918;4.520;12.072;0.006;0.035;0.639;
20200827_195911;3.498;5.619;9.967;0.032;0.116;0.424;
20200827_195911;1.618;3.819;6.785;0.032;0.092;-0.088;
20200827_195911;2.866;4.963;12.318;-0.010;0.019;0.118;
20200827_195911;-1.144;4.310;9.163;0.066;0.178;0.663;
20200827_195911;1.741;4.436;2.507;0.073;0.148;0.039;
20200827_195911;0.105;3.828;1.434;0.070;0.163;-0.033;
20200827_195911;-0.350;2.751;6.613;0.087;0.115;0.197;
20200827_195911;-0.419;3.381;8.167;-0.001;0.147;0.378;
20200827_195911;0.237;3.826;6.680;-0.106;0.230;0.339;
20200827_195912;-1.920;3.534;8.538;-0.065;0.139;0.047;
20200827_195912;2.210;4.798;8.617;0.000;0.097;0.027;
20200827_195912;1.300;3.680;6.325;0.079;0.103;-0.056;
20200827_195912;0.438;5.025;8.334;0.019;0.151;0.065;
20200827_195912;1.097;4.750;7.384;0.057;0.042;0.008;
20200827_195912;0.254;5.289;11.847;0.008;0.092;0.091;
20200827_195912;-0.606;4.788;11.696;-0.131;0.109;0.312;
20200827_195912;1.475;5.993;7.496;-0.012;0.146;0.274;
20200827_195912;0.402;1.951;10.482;0.042;0.157;0.048;
20200827_195913;1.434;4.513;10.127;0.036;0.057;-0.083;
20200827_195913;-0.936;3.560;5.540;0.184;0.086;0.004;
20200827_195913;1.305;4.123;5.883;0.085;0.081;0.182;
20200827_195913;0.991;5.069;7.233;-0.109;0.108;-0.012;
20200827_195913;1.381;2.758;9.993;-0.268;0.067;-0.153;
20200827_195913;0.318;7.111;1.532;0.023;0.086;-0.096;
20200827_195913;-1.173;3.950;5.830;0.077;-0.032;-0.066;
20200827_195913;0.414;7.760;12.558;0.131;0.008;0.140;
20200827_195913;0.160;5.545;3.740;0.054;0.094;0.184;
20200827_195913;-1.144;4.891;11.092;-0.024;0.148;0.262;
20200827_195914;0.898;2.406;10.980;0.015;0.063;0.063;
20200827_195914;-0.429;4.183;5.497;-0.022;0.241;0.051;
20200827_195914;2.571;3.417;8.456;0.011;0.025;-0.228;
20200827_195914;0.984;4.724;6.103;0.171;0.008;-0.423;
20200827_195914;0.247;4.743;12.620;0.045;-0.109;-0.491;
20200827_195914;1.621;2.650;8.784;-0.062;-0.170;-0.229;
20200827_195914;-2.363;2.638;6.974;-0.077;-0.155;-0.012;
20200827_195914;-0.144;4.717;15.165;-0.073;-0.160;0.274;
20200827_195914;-0.730;3.831;3.759;0.075;-0.126;0.195;
20200827_195915;0.393;7.286;8.959;0.139;-0.108;0.250;
20200827_195915;-0.235;5.320;12.878;0.003;0.011;0.448;
20200827_195915;0.115;5.511;7.238;-0.082;-0.024;0.147;
20200827_195915;0.271;3.376;6.809;-0.010;0.084;0.323;
20200827_195915;-0.402;4.465;10.221;0.002;0.034;0.207;
20200827_195915;1.851;4.029;8.648;-0.034;0.020;0.113;
20200827_195915;2.200;5.294;8.109;-0.066;-0.087;-0.302;
20200827_195915;0.816;4.733;8.882;-0.151;-0.006;0.102;
20200827_195915;-1.580;3.991;4.496;0.152;0.085;0.542;
20200827_195915;1.214;5.341;9.510;0.037;0.098;0.643;
20200827_195916;1.293;3.850;11.533;-0.016;0.152;0.255;
20200827_195916;-0.536;4.535;8.835;0.116;0.171;0.127;
20200827_195916;0.268;4.614;10.977;0.011;0.201;0.294;
20200827_195916;0.263;4.709;4.791;0.166;0.180;0.288;
20200827_195916;0.941;3.962;9.527;0.188;0.232;0.247;
20200827_195916;1.451;0.824;12.447;-0.093;0.255;0.010;
20200827_195916;1.721;3.053;8.442;-0.088;0.157;-0.351;
20200827_195916;-0.457;4.381;4.956;0.046;0.039;-0.435;
20200827_195916;0.089;3.802;11.626;0.054;0.035;0.003;
20200827_195917;0.599;5.751;9.596;0.078;-0.064;-0.038;
20200827_195917;-0.132;4.616;7.460;-0.097;0.022;0.229;
20200827_195917;0.345;5.267;8.650;-0.153;0.069;0.256;
20200827_195917;0.445;4.863;11.258;-0.064;0.129;0.156;
20200827_195917;1.693;3.994;7.918;0.100;0.029;-0.101;
20200827_195917;-0.077;4.511;5.935;0.074;0.104;-0.065;
20200827_195917;-0.366;4.896;11.344;-0.104;0.060;-0.079;
20200827_195917;1.444;7.228;3.869;0.078;0.023;-0.112;
20200827_195917;0.563;4.556;5.622;0.099;0.008;-0.088;
20200827_195917;0.996;6.187;10.051;0.044;0.064;0.248;
20200827_195918;2.380;5.576;7.796;-0.071;-0.006;-0.220;
20200827_195918;0.867;3.826;6.273;-0.088;0.026;-0.361;
20200827_195918;-1.516;5.100;9.991;0.003;0.014;0.067;
20200827_195918;2.634;4.891;11.186;-0.060;-0.051;-0.001;
20200827_195918;0.697;7.724;5.167;0.080;0.005;-0.172;
20200827_195918;0.560;3.819;7.750;-0.002;-0.066;-0.316;
20200827_195918;0.096;4.843;10.029;-0.053;0.035;0.033;
20200827_195918;0.393;6.002;8.612;-0.004;-0.075;-0.223;
20200827_195918;0.702;3.838;4.669;0.066;0.019;0.005;
20200827_195919;0.958;6.194;3.723;0.216;-0.009;-0.092;
20200827_195919;0.819;3.093;13.041;0.012;0.035;-0.197;
20200827_195919;1.262;6.735;8.969;0.098;-0.052;-0.523;
20200827_195919;0.081;4.154;8.538;0.073;-0.012;-0.351;
20200827_195919;0.385;2.545;10.015;-0.060;-0.104;-0.414;
20200827_195919;0.960;5.361;3.627;-0.018;-0.129;-0.426;
20200827_195919;-0.630;4.336;3.575;0.164;-0.112;-0.242;
20200827_195919;0.180;6.792;2.933;0.158;-0.139;-0.157;
20200827_195919;0.795;5.401;7.568;0.052;-0.254;-0.360;
20200827_195919;1.140;1.767;10.297;0.325;-0.291;-0.371;
20200827_195920;-2.835;2.796;10.010;0.003;-0.229;0.095;
20200827_195920;0.974;1.432;11.827;0.023;-0.212;0.219;
20200827_195920;2.765;2.217;8.648;-0.054;-0.002;0.609;
20200827_195920;-1.535;5.784;0.302;0.119;-0.048;-0.255;
20200827_195920;-2.406;4.369;31.053;0.000;0.096;0.373;
20200827_195920;1.535;8.612;13.214;0.036;0.029;-0.143;
20200827_195920;-2.945;6.965;6.565;-0.131;0.109;0.015;
20200827_195920;5.262;2.739;7.037;0.003;-0.094;-0.343;
20200827_195920;1.386;2.732;16.010;-0.032;0.009;-0.166;
20200827_195921;-3.175;2.212;10.125;-0.170;0.252;0.430;
20200827_195921;0.742;6.232;0.419;0.023;0.036;-0.438;
20200827_195921;1.211;4.614;3.792;0.176;-0.130;-1.072;
20200827_195921;1.836;1.932;16.020;0.102;-0.136;-0.618;
20200827_195921;-1.832;7.094;7.786;0.074;-0.109;0.051;
20200827_195921;0.409;4.946;10.161;0.023;-0.163;0.109;
20200827_195921;-0.891;4.520;8.679;-0.031;-0.073;0.116;
20200827_195921;-0.124;2.210;8.234;0.066;-0.013;-0.057;
20200827_195921;2.078;3.464;10.151;0.046;-0.155;-0.408;
20200827_195921;0.412;4.501;11.569;0.015;-0.190;-0.349;
20200827_195922;-1.453;4.889;7.887;0.059;-0.314;-0.218;
20200827_195922;-0.232;2.643;8.056;0.137;-0.263;0.001;
20200827_195922;-2.081;3.752;6.024;-0.037;-0.175;0.602;
20200827_195922;0.294;3.783;7.302;-0.005;-0.090;0.488;
20200827_195922;0.948;4.585;2.322;0.002;-0.076;0.246;
20200827_195922;0.864;6.242;5.478;-0.012;-0.228;-0.027;
20200827_195922;0.912;6.998;10.247;-0.008;-0.074;0.586;
20200827_195922;1.432;4.870;6.120;-0.007;0.024;0.529;
20200827_195922;1.178;6.050;9.471;0.004;0.202;0.672;
20200827_195923;0.474;3.124;11.360;-0.035;0.332;0.542;
20200827_195923;0.591;3.749;4.899;0.107;0.334;0.337;
20200827_195923;0.637;3.168;6.771;0.062;0.288;0.130;
20200827_195923;1.829;3.280;7.930;0.002;0.063;-0.401;
20200827_195923;1.123;9.230;12.407;0.103;0.204;0.051;
20200827_195923;-1.259;6.048;26.293;-0.481;0.317;0.310;
20200827_195923;-0.594;-2.066;7.774;0.038;0.457;0.279;
20200827_195923;1.741;0.876;9.194;0.088;0.294;-0.272;
20200827_195923;2.025;-2.466;7.542;-0.212;0.148;-0.862;
20200827_195924;0.208;-5.437;29.018;-0.035;0.047;-1.074;
20200827_195924;-0.515;7.432;6.986;0.017;0.005;-1.002;
20200827_195924;-0.184;4.305;13.209;0.042;-0.123;-0.850;
20200827_195924;2.749;-7.630;17.202;1.256;-0.290;-0.893;
20200827_195924;0.678;0.570;9.124;0.522;-0.241;-0.778;
20200827_195924;2.954;20.332;9.261;0.362;-0.362;-0.818;
20200827_195924;-0.745;-7.738;4.721;0.057;-0.224;-0.438;
20200827_195924;-2.775;1.216;11.234;0.150;-0.278;-0.421;
20200827_195924;1.599;2.006;8.657;0.066;-0.442;-0.642;
20200827_195924;-1.626;6.821;7.386;0.091;-0.359;-0.377;
20200827_195925;-0.697;5.291;9.108;0.075;-0.411;-0.130;
20200827_195925;-0.620;2.507;11.044;0.101;-0.456;-0.214;
20200827_195925;-0.354;4.714;11.193;0.109;-0.484;-0.174;
20200827_195925;-0.163;4.894;7.693;0.106;-0.444;0.089;
20200827_195925;-2.444;4.381;8.483;0.018;-0.192;1.049;
20200827_195925;0.208;5.066;6.665;-0.018;-0.024;0.957;
20200827_195925;0.493;5.818;8.538;-0.016;0.211;0.621;
20200827_195925;1.638;5.677;8.068;0.035;0.087;-0.032;
20200827_195925;1.697;4.774;8.035;0.039;0.114;-0.319;
20200827_195926;-0.778;4.420;6.950;0.015;0.118;-0.423;
20200827_195926;0.917;6.505;3.788;0.034;-0.020;-0.376;
20200827_195926;1.659;4.379;14.478;0.046;-0.039;-0.224;
20200827_195926;-2.622;3.086;0.041;0.164;0.067;-0.142;
20200827_195926;-1.681;2.782;9.124;-0.078;0.103;0.123;
20200827_195926;3.800;1.408;10.317;-0.165;-0.148;-0.514;
20200827_195926;-0.220;5.119;3.084;0.153;-0.190;-0.521;
20200827_195926;-0.862;0.622;18.727;0.084;-0.415;-0.398;
20200827_195926;-0.311;1.626;5.258;0.038;-0.362;0.101;
20200827_195926;-0.290;5.703;2.476;0.130;-0.204;0.064;
20200827_195927;-0.213;4.858;7.422;-0.194;-0.203;0.365;
20200827_195927;0.910;6.723;-0.632;0.022;-0.090;0.595;
20200827_195927;-1.041;6.965;8.033;0.028;0.167;0.702;
20200827_195927;0.362;3.359;4.003;0.126;0.180;0.526;
20200827_195927;2.909;5.737;9.833;-0.082;0.199;-0.144;
20200827_195927;1.824;3.649;9.977;0.082;0.120;-0.524;
20200827_195927;1.463;6.539;10.252;0.059;-0.013;-0.458;
20200827_195927;-1.314;4.702;6.472;0.034;-0.053;-0.367;
20200827_195927;0.206;5.076;8.418;0.034;-0.171;-0.201;
20200827_195927;-0.438;5.363;10.118;0.008;-0.172;-0.132;
20200827_195928;0.982;5.540;9.905;0.042;-0.220;-0.009;
20200827_195928;-0.400;4.939;6.196;0.004;-0.172;-0.062;
20200827_195928;-0.294;4.635;8.023;0.019;-0.114;0.123;
20200827_195928;0.417;5.071;8.461;-0.021;-0.016;0.138;
20200827_195928;-0.232;4.867;5.839;0.050;0.040;0.189;
20200827_195928;-0.213;4.518;6.287;0.119;0.098;0.202;
20200827_195928;-0.132;4.472;6.742;0.084;0.117;0.097;
20200827_195928;-0.062;5.085;7.108;0.052;0.119;-0.058;
20200827_195928;-0.730;5.315;9.610;0.021;0.097;-0.130;
20200827_195929;-0.448;3.558;9.589;0.011;0.079;-0.121;
20200827_195929;0.457;4.125;7.944;0.001;0.011;-0.225;
20200827_195929;-0.151;4.501;8.569;0.010;-0.053;-0.395;
20200827_195929;0.515;4.657;7.118;-0.046;-0.155;-0.127;
20200827_195929;0.757;4.391;8.349;0.008;-0.091;-0.128;
20200827_195929;0.160;5.162;8.959;-0.036;-0.102;-0.070;
20200827_195929;0.302;4.350;8.485;-0.017;-0.060;0.084;
20200827_195929;-0.139;4.858;7.391;0.036;-0.028;0.145;
20200827_195929;-0.041;3.869;9.713;0.001;0.082;0.158;
20200827_195930;0.424;6.203;7.400;-0.014;0.048;-0.054;
20200827_195930;1.202;5.353;4.628;0.068;0.095;-0.088;
20200827_195930;-0.524;5.052;10.106;0.031;0.007;-0.289;
20200827_195930;1.216;4.132;9.433;0.008;-0.092;-0.332;
20200827_195930;-0.620;5.183;6.732;0.041;-0.050;-0.094;
20200827_195930;-0.206;3.831;8.962;0.009;-0.147;-0.144;
20200827_195930;0.484;5.370;7.954;-0.063;-0.155;-0.047;
20200827_195930;1.341;5.375;7.475;-0.022;-0.132;-0.112;
20200827_195930;0.611;4.542;8.660;-0.010;-0.175;-0.266;
20200827_195930;-0.591;5.346;9.330;0.033;-0.182;-0.015;
20200827_195931;-0.860;4.970;6.366;0.055;-0.130;0.369;
20200827_195931;0.136;6.002;6.613;0.055;-0.000;0.470;
20200827_195931;-0.247;4.863;8.578;-0.018;0.072;0.256;
20200827_195931;0.251;5.375;7.673;-0.040;0.082;0.102;
20200827_195931;-0.115;3.170;8.076;0.008;0.090;0.096;
20200827_195931;1.642;4.530;10.958;-0.031;0.005;-0.039;
20200827_195931;0.706;5.329;8.102;-0.016;-0.073;-0.091;
20200827_195931;0.857;4.190;8.406;-0.037;-0.007;0.056;
20200827_195931;0.601;7.235;5.100;-0.007;0.007;0.176;
20200827_195932;0.294;3.639;5.983;0.019;0.078;0.068;
20200827_195932;0.105;4.532;9.390;0.011;0.079;0.117;
20200827_195932;1.140;4.796;7.903;0.012;0.087;0.042;
20200827_195932;0.091;3.438;10.712;0.001;0.102;-0.005;
20200827_195932;1.434;7.434;5.571;-0.158;0.098;0.146;
20200827_195932;0.259;2.241;4.810;-0.048;0.169;0.034;
20200827_195932;1.156;5.442;7.563;0.114;0.054;-0.225;
20200827_195932;0.060;0.881;7.977;-0.055;0.032;-0.383;
20200827_195932;0.845;4.764;8.722;-0.064;-0.167;-0.284;
20200827_195932;-0.876;4.384;8.648;-0.012;-0.049;0.070;
20200827_195933;0.749;5.677;8.456;-0.037;-0.030;0.125;
20200827_195933;1.513;4.755;8.945;-0.047;0.004;-0.030;
20200827_195933;-0.261;3.213;8.940;-0.049;0.032;-0.056;
20200827_195933;0.596;5.535;7.324;0.018;0.125;0.060;
20200827_195933;0.596;4.731;6.644;0.001;0.168;-0.231;
20200827_195933;0.182;4.037;9.187;0.003;0.134;-0.317;
20200827_195933;1.058;5.332;7.954;-0.036;-0.022;-0.610;
20200827_195933;-0.508;2.076;5.332;0.094;-0.097;-0.685;
20200827_195933;0.012;5.045;8.600;0.077;-0.248;-0.519;
20200827_195934;-1.334;4.410;6.946;0.065;-0.310;-0.180;
20200827_195934;0.187;4.099;8.035;0.038;-0.207;0.136;
20200827_195934;0.948;6.606;6.701;0.077;-0.177;-0.133;
20200827_195934;1.144;3.177;6.072;0.016;-0.185;-0.170;
20200827_195934;0.158;5.471;9.876;0.003;-0.226;0.054;
20200827_195934;-0.658;5.047;8.459;0.050;-0.011;0.342;
20200827_195934;1.144;4.317;10.621;-0.025;-0.045;0.062;
20200827_195934;-0.424;5.030;4.345;0.020;0.114;0.167;
20200827_195934;0.989;4.839;7.214;-0.036;-0.056;-0.188;
20200827_195935;-0.567;4.393;8.317;-0.028;-0.099;-0.198;
20200827_195935;-0.697;3.776;10.089;0.002;-0.110;0.033;
20200827_195935;0.227;5.298;10.400;-0.006;-0.091;0.108;
20200827_195935;0.558;5.392;6.333;0.022;-0.008;0.157;
20200827_195935;1.393;4.611;9.950;-0.013;-0.012;-0.012;
20200827_195935;0.019;3.864;11.097;0.003;0.020;0.146;
20200827_195935;0.670;5.406;10.841;0.029;0.108;0.180;
20200827_195935;1.183;4.362;6.665;0.043;0.108;-0.108;
20200827_195935;1.118;6.701;8.631;0.020;0.081;-0.219;
20200827_195935;-0.532;3.273;8.327;-0.043;0.027;-0.320;
20200827_195936;0.132;4.860;12.234;-0.119;-0.118;-0.174;
20200827_195936;0.026;7.247;7.063;0.098;-0.121;0.046;
20200827_195936;-1.427;5.820;8.885;0.018;-0.012;0.249;
20200827_195936;0.745;5.179;7.441;-0.006;-0.017;0.105;
20200827_195936;-0.551;3.314;9.376;0.000;0.070;0.096;
20200827_195936;0.239;4.463;11.966;-0.028;0.083;-0.000;
20200827_195936;2.028;4.283;7.621;0.046;0.119;-0.126;
20200827_195936;0.491;4.645;7.887;0.001;-0.011;-0.450;
20200827_195936;-0.436;4.958;10.798;-0.011;-0.002;-0.125;
20200827_195937;-0.704;4.958;11.265;0.005;0.014;0.088;
20200827_195937;0.194;4.020;9.160;0.023;0.008;0.029;
20200827_195937;-0.452;5.160;6.124;0.018;-0.000;-0.126;
20200827_195937;0.043;3.285;9.369;-0.055;-0.071;-0.275;
20200827_195937;0.922;5.660;11.071;-0.036;-0.080;-0.147;
20200827_195937;0.819;4.228;9.357;0.010;-0.040;-0.064;
20200827_195937;-1.664;4.020;6.893;0.014;0.029;-0.052;
20200827_195937;1.961;4.762;11.902;-0.051;-0.090;-0.209;
20200827_195937;-0.692;4.458;6.507;0.029;-0.052;-0.241;
20200827_195938;-2.397;3.922;8.078;0.032;-0.101;-0.042;
20200827_195938;-0.840;3.646;9.637;-0.044;-0.074;0.091;
20200827_195938;-0.381;2.818;8.203;-0.055;-0.110;0.089;
20200827_195938;-0.450;5.602;7.499;0.045;-0.039;0.228;
20200827_195938;0.814;4.123;7.630;0.026;-0.008;0.151;
20200827_195938;0.271;5.595;7.238;-0.005;0.027;-0.033;
20200827_195938;1.434;2.751;8.207;0.029;0.024;-0.124;
20200827_195938;0.740;3.984;12.050;-0.089;-0.009;-0.227;
20200827_195938;-0.259;4.841;8.547;-0.049;-0.073;-0.139;
20200827_195938;-0.534;4.051;6.895;0.037;-0.033;0.055;
20200827_195939;0.821;8.083;7.654;0.190;0.042;0.123;
20200827_195939;0.725;3.069;3.515;0.041;-0.038;-0.018;
20200827_195939;0.318;2.691;10.623;-0.039;-0.064;-0.197;
20200827_195939;0.405;6.304;7.470;0.075;-0.065;-0.047;
20200827_195939;0.682;6.251;9.371;-0.043;-0.088;-0.026;
20200827_195939;0.974;5.040;4.147;0.012;-0.045;-0.066;
20200827_195939;1.161;4.063;8.511;0.002;-0.050;0.029;
20200827_195939;0.105;3.996;5.969;0.044;-0.007;0.041;
20200827_195939;1.482;5.095;8.107;0.025;0.021;0.097;
20200827_195940;-0.230;3.103;7.250;0.076;0.056;-0.056;
20200827_195940;0.187;4.429;9.725;-0.044;-0.018;-0.109;
20200827_195940;-0.867;4.508;9.117;-0.014;0.011;0.100;
20200827_195940;0.931;6.175;6.838;-0.041;-0.057;-0.042;
20200827_195940;0.723;3.836;3.148;0.130;-0.030;0.023;
20200827_195940;-0.685;4.575;10.056;-0.056;0.030;0.098;
20200827_195940;1.085;5.406;7.063;-0.007;-0.001;0.067;
20200827_195940;1.506;3.443;10.441;-0.005;0.022;-0.228;
20200827_195940;-0.529;5.258;9.431;-0.053;0.027;-0.101;
20200827_195940;0.469;3.891;6.244;0.018;-0.038;-0.060;
20200827_195941;-0.666;4.017;9.704;-0.011;0.058;0.141;
20200827_195941;0.407;4.355;7.915;0.003;0.048;-0.019;
20200827_195941;1.475;5.578;14.564;-0.128;0.029;-0.100;
20200827_195941;0.457;2.945;2.686;0.070;-0.018;-0.356;
20200827_195941;0.041;6.713;8.930;0.083;-0.091;-0.210;
20200827_195941;-1.003;2.042;7.345;0.062;-0.048;-0.009;
20200827_195941;-0.527;3.089;9.031;0.049;-0.053;0.076;
20200827_195941;1.784;5.160;9.301;-0.053;-0.120;-0.210;
20200827_195941;-0.974;4.317;7.326;-0.024;-0.044;0.222;
20200827_195941;0.608;4.056;9.158;-0.021;0.019;0.211;
20200827_195942;1.611;6.725;5.784;-0.003;0.009;-0.043;
20200827_195942;0.038;4.693;7.884;-0.028;0.025;-0.116;
20200827_195942;0.838;4.623;6.950;-0.020;0.025;-0.049;
20200827_195942;-0.196;3.697;8.935;0.028;0.007;-0.226;
20200827_195942;-0.031;6.366;6.012;0.100;-0.002;0.091;
20200827_195942;0.354;2.902;17.308;-0.011;-0.020;-0.085;
20200827_195942;2.071;4.264;7.750;-0.061;-0.052;-0.219;
20200827_195942;0.527;5.104;8.219;0.026;-0.016;-0.190;
20200827_195942;-0.951;4.130;6.814;-0.010;0.023;0.021;
20200827_195943;-0.505;4.101;7.640;0.111;0.101;0.215;
20200827_195943;2.205;4.432;9.127;0.042;0.043;-0.138;
20200827_195943;1.025;4.913;8.509;-0.013;0.045;-0.521;
20200827_195943;0.407;5.511;5.262;-0.029;-0.104;-0.464;
20200827_195943;-1.635;6.304;4.465;0.149;-0.080;-0.227;
20200827_195943;0.144;3.381;12.057;-0.059;-0.229;-0.242;
20200827_195943;0.213;5.885;10.036;0.019;-0.190;-0.160;
20200827_195943;-0.081;5.942;5.468;0.001;-0.235;0.009;
20200827_195943;0.393;5.224;7.029;0.157;-0.183;0.095;
20200827_195943;0.625;4.559;10.432;0.008;-0.068;0.231;
20200827_195944;0.433;4.693;9.527;0.015;-0.069;0.063;
20200827_195944;0.323;5.045;9.589;0.038;0.021;0.043;
20200827_195944;0.692;4.956;8.466;0.060;-0.017;0.006;
20200827_195944;0.275;5.136;9.883;-0.048;-0.014;0.068;
20200827_195944;0.699;4.685;8.830;-0.018;-0.057;-0.094;
20200827_195944;0.168;6.381;6.196;-0.056;-0.045;-0.039;
20200827_195944;-0.982;4.566;5.748;0.127;-0.024;-0.007;
20200827_195944;-0.235;5.272;9.732;0.021;0.004;0.059;
20200827_195944;1.001;5.449;7.989;0.042;-0.046;-0.142;
20200827_195945;0.187;5.018;5.478;0.025;-0.017;-0.101;
20200827_195945;1.085;3.515;8.684;0.097;-0.081;-0.133;
20200827_195945;0.132;4.532;10.434;0.004;0.011;0.296;
20200827_195945;0.273;5.492;6.924;0.036;0.036;0.163;
20200827_195945;0.838;5.270;9.665;-0.084;0.049;0.043;
20200827_195945;-0.199;3.270;5.942;0.090;0.035;-0.110;
20200827_195945;-0.352;2.342;11.542;0.242;0.055;-0.006;
20200827_195945;1.681;4.001;7.472;0.044;-0.065;-0.055;
20200827_195945;0.687;12.397;9.716;-0.068;-0.117;-0.096;
20200827_195945;-0.292;4.571;2.801;0.058;-0.043;-0.045;
20200827_195946;-0.225;4.982;8.317;0.008;-0.062;-0.079;
20200827_195946;0.493;3.828;7.247;0.032;-0.044;0.112;
20200827_195946;0.388;4.937;8.207;-0.083;0.009;0.150;
20200827_195946;0.737;5.363;7.748;0.004;-0.016;-0.059;
20200827_195946;0.000;3.706;11.961;-0.035;-0.032;0.035;
20200827_195946;0.053;3.996;8.684;-0.036;-0.014;0.017;
20200827_195946;-1.188;4.951;3.867;0.174;-0.013;-0.026;
20200827_195946;0.560;3.290;11.554;-0.137;-0.083;-0.041;
20200827_195946;0.424;6.958;7.063;0.039;-0.079;0.065;
20200827_195947;-0.108;3.946;8.217;0.034;-0.040;-0.006;
20200827_195947;-1.063;4.994;6.524;0.100;0.020;0.001;
20200827_195947;1.109;4.884;12.323;-0.046;-0.051;0.090;
20200827_195947;-0.560;3.936;8.143;-0.039;0.023;0.177;
20200827_195947;0.148;4.642;7.884;-0.018;0.009;0.043;
20200827_195947;-0.663;5.076;6.009;0.082;0.039;0.030;
20200827_195947;-0.527;5.976;11.562;-0.055;-0.056;0.167;
20200827_195947;0.254;4.539;6.893;0.047;0.063;0.391;
20200827_195947;1.908;4.793;7.958;-0.020;0.055;0.089;
20200827_195948;0.570;3.728;7.681;0.098;0.050;-0.227;
20200827_195948;0.405;4.736;12.163;-0.043;0.039;0.003;
20200827_195948;0.797;4.575;6.891;0.005;0.052;0.124;
20200827_195948;-0.017;4.436;9.172;0.090;0.139;0.085;
20200827_195948;-0.220;5.646;6.584;0.050;0.115;0.019;
20200827_195948;-0.429;4.810;9.586;-0.063;0.108;0.041;
20200827_195948;0.271;5.267;10.080;0.009;0.129;0.125;
20200827_195948;1.822;5.107;9.708;-0.036;0.068;-0.281;
20200827_195948;-0.297;5.478;5.997;0.005;-0.024;-0.366;
20200827_195948;1.180;4.484;9.548;-0.086;-0.108;-0.127;
20200827_195949;0.261;5.401;6.668;0.019;-0.069;-0.048;
20200827_195949;0.350;4.077;10.080;0.000;-0.057;-0.093;
20200827_195949;-1.427;5.322;5.717;0.014;-0.097;0.154;
20200827_195949;0.876;5.143;11.111;-0.085;-0.061;0.386;
20200827_195949;0.153;4.448;6.620;0.041;0.024;0.173;
20200827_195949;-0.409;4.573;7.764;-0.012;0.057;0.111;
20200827_195949;-0.311;5.073;5.382;0.022;0.089;0.141;
20200827_195949;1.420;5.389;10.199;-0.007;0.079;-0.018;
20200827_195949;0.682;0.972;8.143;0.002;0.078;-0.145;
20200827_195950;0.824;3.740;9.392;-0.045;0.006;-0.155;
20200827_195950;0.450;4.061;3.108;0.057;0.031;-0.247;
20200827_195950;0.836;4.039;9.469;-0.032;-0.036;-0.175;
20200827_195950;-0.840;2.009;8.162;-0.119;-0.055;0.130;
20200827_195950;0.565;4.812;7.039;0.006;0.013;0.111;
20200827_195950;-0.582;3.651;9.538;0.028;0.015;-0.008;
20200827_195950;0.067;4.331;9.249;-0.122;-0.105;-0.049;
20200827_195950;-0.579;3.814;6.967;-0.049;0.008;0.240;
20200827_195950;-0.093;5.332;9.601;0.015;0.013;0.020;
20200827_195950;-0.261;4.781;4.748;0.046;-0.016;0.067;
20200827_195951;0.457;6.093;14.724;-0.136;0.062;0.219;
20200827_195951;0.989;4.472;7.151;-0.076;-0.025;0.105;
20200827_195951;1.803;6.349;7.712;-0.010;0.080;0.102;
20200827_195951;0.153;4.695;6.349;0.051;0.034;0.070;
20200827_195951;-0.048;4.978;10.767;-0.059;0.102;0.116;
20200827_195951;-0.031;4.082;6.558;0.042;0.114;-0.013;
20200827_195951;1.310;3.591;8.849;0.049;0.080;-0.093;
20200827_195951;-0.290;4.226;7.537;-0.029;0.029;-0.207;
20200827_195951;0.481;5.425;9.864;-0.061;0.024;0.033;
20200827_195952;0.895;4.451;6.934;0.017;0.023;-0.063;
20200827_195952;1.259;4.829;8.449;0.000;-0.071;-0.271;
20200827_195952;-0.342;5.806;5.557;0.027;-0.048;-0.143;
20200827_195952;-0.443;3.555;12.574;0.046;0.034;0.137;
20200827_195952;1.214;5.109;12.615;-0.100;-0.097;0.040;
20200827_195952;1.982;6.321;8.799;0.049;-0.022;-0.072;
20200827_195952;0.809;6.495;6.323;0.083;0.033;-0.126;
20200827_195952;0.675;4.954;11.298;-0.011;-0.085;-0.210;
20200827_195952;-0.067;4.274;7.283;-0.017;-0.058;0.098;
20200827_195952;1.243;5.873;8.741;0.049;-0.045;0.002;
20200827_195953;1.221;4.326;6.800;-0.012;-0.123;-0.320;
20200827_195953;-0.622;4.276;6.103;-0.006;-0.091;-0.045;
20200827_195953;1.104;4.599;13.680;-0.048;-0.171;-0.058;
20200827_195953;-0.654;5.569;9.754;0.009;-0.046;0.271;
20200827_195953;0.460;4.405;7.752;0.025;0.021;0.347;
20200827_195953;1.626;4.930;8.648;-0.016;0.092;0.132;
20200827_195953;-0.093;5.389;5.600;-0.038;0.010;-0.074;
20200827_195953;0.409;4.111;10.005;0.156;0.079;0.006;
20200827_195953;0.611;5.775;9.409;0.020;-0.020;-0.093;
20200827_195954;0.354;6.273;9.840;-0.005;-0.090;-0.208;
20200827_195954;0.558;4.915;8.109;-0.052;-0.165;-0.071;
20200827_195954;-0.893;5.511;7.688;-0.007;-0.001;0.386;
20200827_195954;-0.809;5.385;3.759;0.120;0.049;0.319;
20200827_195954;0.685;3.745;11.935;-0.006;0.099;0.101;
20200827_195954;1.159;4.408;9.275;0.001;0.090;0.150;
20200827_195954;0.385;3.771;9.270;0.037;0.111;0.003;
20200827_195954;0.184;5.358;11.013;0.069;0.101;-0.197;
20200827_195954;0.180;3.733;11.636;-0.124;0.039;-0.067;
20200827_195955;-0.290;3.419;8.856;0.037;0.006;-0.013;
20200827_195955;0.271;5.437;9.570;0.088;0.033;-0.110;
20200827_195955;0.836;3.836;4.820;0.061;-0.106;-0.301;
20200827_195955;-0.048;5.483;9.146;-0.037;-0.136;-0.032;
20200827_195955;1.539;3.603;8.171;-0.044;-0.133;-0.080;
20200827_195955;-1.283;3.778;9.177;-0.045;-0.035;0.044;
20200827_195955;-0.469;5.420;6.354;0.081;-0.057;0.353;
20200827_195955;-0.115;4.051;11.032;-0.038;0.074;0.331;
20200827_195955;-0.242;5.981;6.835;-0.036;0.076;0.250;
20200827_195956;0.785;4.762;6.096;-0.002;0.109;0.219;
20200827_195956;0.948;5.234;9.737;0.042;0.138;0.076;
20200827_195956;2.492;4.860;8.392;0.115;0.072;-0.293;
20200827_195956;-0.642;4.427;9.388;0.021;0.003;-0.210;
20200827_195956;1.798;5.341;7.465;0.009;0.002;-0.087;
20200827_195956;1.307;4.238;5.945;0.006;-0.022;-0.188;
20200827_195956;-1.326;3.766;7.128;-0.012;-0.022;-0.067;
20200827_195956;0.031;5.219;6.706;-0.015;0.005;0.021;
20200827_195956;0.192;4.049;7.745;0.046;0.064;0.036;
20200827_195956;1.018;4.841;7.599;-0.049;-0.067;-0.171;
20200827_195957;0.096;3.838;5.397;0.012;-0.049;-0.082;
20200827_195957;-1.731;4.058;10.269;-0.041;-0.019;0.065;
20200827_195957;1.324;5.054;6.548;0.019;-0.066;-0.131;
20200827_195957;-0.043;4.654;10.874;-0.023;-0.148;-0.212;
20200827_195957;-0.194;4.999;5.741;0.033;-0.190;-0.041;
20200827_195957;-1.401;5.241;7.257;0.021;-0.137;0.157;
20200827_195957;0.395;4.434;10.683;-0.047;-0.027;0.450;
20200827_195957;1.106;4.551;11.966;-0.032;0.022;0.231;
20200827_195957;1.994;4.271;3.218;-0.101;0.089;0.086;
20200827_195958;0.529;4.171;6.115;0.048;0.149;0.099;
20200827_195958;-0.735;7.137;9.845;0.012;0.099;-0.012;
20200827_195958;-0.060;4.583;6.941;0.030;0.058;-0.014;
20200827_195958;0.934;3.881;10.503;-0.093;0.021;-0.138;
20200827_195958;-0.749;4.525;7.113;0.045;-0.050;-0.034;
20200827_195958;0.127;5.437;9.713;0.011;-0.077;0.070;
20200827_195958;1.085;5.385;7.721;-0.041;-0.044;0.011;
20200827_195958;0.206;5.152;7.367;-0.018;-0.075;0.108;
20200827_195958;-0.407;5.655;11.248;-0.012;-0.009;0.288;
20200827_195958;0.570;3.910;8.602;0.030;0.122;0.416;
20200827_195959;0.728;4.573;9.969;0.030;0.107;-0.136;
20200827_195959;0.618;6.725;8.361;0.101;0.108;-0.079;
20200827_195959;0.266;4.070;8.566;-0.017;0.070;-0.032;
20200827_195959;0.862;4.020;9.493;-0.015;0.026;-0.061;
20200827_195959;0.012;5.432;7.300;0.038;0.010;-0.041;
20200827_195959;1.025;5.085;6.342;-0.003;0.008;0.119;
20200827_195959;0.962;4.961;6.476;0.066;-0.020;-0.093;
20200827_195959;0.290;4.085;8.806;0.008;-0.008;-0.029;
20200827_195959;0.462;3.689;8.205;-0.045;-0.017;-0.041;
20200827_200000;0.508;4.891;6.515;0.005;-0.040;0.078;
20200827_200000;0.129;3.201;11.724;-0.005;-0.068;0.133;
20200827_200000;-1.204;4.899;6.704;0.057;0.076;0.626;
20200827_200000;-0.493;4.317;11.035;-0.019;0.115;0.287;
20200827_200000;1.305;4.927;6.661;-0.047;0.078;0.020;
20200827_200000;-0.275;5.346;8.966;0.053;0.114;0.009;
20200827_200000;2.231;4.137;6.814;-0.017;0.007;-0.022;
20200827_200000;1.551;4.149;7.906;-0.035;0.036;-0.038;
20200827_200000;1.911;4.757;6.541;-0.040;-0.024;-0.186;
20200827_200000;-0.180;5.770;8.143;0.076;-0.009;0.051;
20200827_200001;-0.333;4.918;11.360;-0.028;0.005;0.311;
20200827_200001;-0.342;4.448;7.487;-0.018;0.086;0.447;
20200827_200001;0.333;5.540;7.570;0.047;0.127;0.237;
20200827_200001;1.262;5.313;4.894;-0.001;0.089;0.003;
20200827_200001;-0.706;4.094;7.041;-0.035;0.082;-0.016;
20200827_200001;0.283;4.846;8.657;0.035;0.008;-0.109;
20200827_200001;0.594;4.712;7.333;0.093;-0.127;-0.023;
20200827_200001;0.314;2.950;13.192;0.028;-0.068;0.344;
20200827_200001;1.630;6.081;5.164;0.085;-0.053;0.129;
20200827_200002;-0.127;5.047;9.455;0.026;-0.005;0.052;
20200827_200002;0.826;2.665;8.270;-0.032;-0.079;0.295;
20200827_200002;-0.860;5.042;10.001;0.010;0.102;0.526;
20200827_200002;0.752;4.463;6.608;0.036;0.144;0.427;
20200827_200002;1.202;6.134;7.975;0.069;0.155;0.139;
20200827_200002;-0.989;3.982;8.418;0.044;0.122;0.105;
20200827_200002;0.347;3.857;9.816;0.052;0.027;0.123;
20200827_200002;1.190;4.116;8.485;0.002;-0.089;0.154;
20200827_200002;0.438;4.410;6.246;0.050;-0.020;0.499;
20200827_200002;0.532;5.586;8.404;0.039;0.013;0.399;
20200827_200003;0.285;4.219;12.275;0.011;0.017;0.459;
20200827_200003;1.204;4.345;7.197;-0.005;0.069;0.591;
20200827_200003;1.010;6.457;7.039;0.243;0.266;0.824;
20200827_200003;0.917;3.685;10.274;0.142;0.284;0.302;
20200827_200003;-0.038;5.748;9.584;0.059;0.353;0.300;
20200827_200003;0.041;4.748;5.607;0.079;0.266;0.204;
20200827_200003;-0.589;4.908;8.973;0.123;0.176;0.276;
20200827_200003;1.398;4.662;7.580;0.116;0.134;0.193;
20200827_200003;0.711;4.274;7.013;0.027;0.133;0.206;
20200827_200004;0.304;4.147;8.040;0.123;0.137;0.227;
20200827_200004;1.425;4.075;8.241;0.098;0.169;0.328;
20200827_200004;0.931;4.738;9.407;0.137;0.155;0.399;
20200827_200004;1.422;3.874;5.588;0.158;0.229;0.342;
20200827_200004;0.800;5.557;9.560;0.027;0.228;0.268;
20200827_200004;0.812;3.515;9.330;0.088;0.262;0.245;
20200827_200004;1.025;4.365;7.317;0.071;0.238;0.082;
20200827_200004;0.603;4.489;12.297;0.057;0.210;-0.022;
20200827_200004;0.508;4.616;5.564;0.070;0.156;0.085;
20200827_200005;0.019;5.954;8.758;0.052;0.173;0.032;
20200827_200005;0.201;3.062;8.490;0.038;0.128;-0.002;
20200827_200005;-0.017;3.584;11.990;0.013;0.120;0.085;
20200827_200005;1.688;3.728;6.800;0.048;0.106;0.087;
20200827_200005;0.622;5.899;9.048;-0.044;0.041;-0.014;
20200827_200005;-0.345;5.181;8.892;-0.010;0.021;0.108;
20200827_200005;-0.208;3.177;6.014;-0.024;0.056;0.232;
20200827_200005;1.192;3.924;7.559;0.033;0.095;0.212;
20200827_200005;0.177;3.697;7.171;0.049;0.101;0.113;
20200827_200005;0.476;4.891;7.384;0.109;0.091;0.171;
20200827_200006;0.948;4.475;5.562;0.109;0.095;0.096;
20200827_200006;0.570;3.359;10.293;0.046;0.170;0.197;
20200827_200006;0.326;3.996;8.724;-0.011;0.158;0.079;
20200827_200006;-0.802;3.170;9.871;0.000;0.214;0.060;
20200827_200006;0.436;2.952;4.630;0.077;0.156;0.095;
20200827_200006;0.900;4.642;6.728;0.049;0.184;0.084;
20200827_200006;-0.256;5.313;11.432;-0.045;0.114;-0.271;
20200827_200006;0.232;4.226;10.099;-0.015;0.052;-0.189;
20200827_200006;-0.309;4.120;6.450;0.048;-0.034;-0.139;
20200827_200007;0.498;4.417;9.503;0.026;-0.059;0.070;
20200827_200007;0.510;4.609;7.733;-0.012;-0.034;0.013;
20200827_200007;0.103;4.099;10.159;-0.037;0.032;0.131;
20200827_200007;0.110;3.560;5.231;0.001;0.020;0.113;
20200827_200007;1.676;3.112;6.582;0.130;0.041;0.096;
20200827_200007;0.484;5.270;8.277;0.036;0.092;-0.044;
20200827_200007;-0.230;5.148;10.635;-0.052;0.051;-0.055;
20200827_200007;-0.816;2.653;8.940;-0.089;-0.015;-0.100;
20200827_200007;1.161;4.269;6.342;0.076;-0.003;0.054;
20200827_200008;0.177;4.350;8.983;-0.007;-0.001;-0.043;
20200827_200008;0.419;5.001;6.100;-0.002;-0.032;-0.028;
20200827_200008;0.232;5.009;8.420;-0.014;-0.048;-0.140;
20200827_200008;1.417;3.883;7.333;-0.027;-0.036;0.042;
20200827_200008;-0.575;4.025;6.958;-0.001;-0.009;-0.023;
20200827_200008;0.335;4.815;8.983;0.038;-0.026;0.060;
20200827_200008;-0.249;4.810;6.613;0.022;-0.017;0.053;
20200827_200008;-0.172;4.855;8.775;-0.059;-0.034;0.038;
20200827_200008;-0.936;4.899;7.599;-0.028;0.045;0.199;
20200827_200008;1.369;4.360;7.331;-0.034;-0.076;0.033;
20200827_200009;0.702;5.816;9.517;-0.021;-0.008;0.089;
20200827_200009;-0.189;4.226;3.836;-0.008;-0.027;0.139;
20200827_200009;0.814;4.025;7.477;0.000;0.049;0.213;
20200827_200009;1.314;5.432;9.522;0.021;0.017;-0.163;
20200827_200009;0.591;3.733;7.343;0.038;0.065;-0.036;
20200827_200009;-0.098;5.160;7.487;0.026;0.076;0.008;
20200827_200009;0.383;4.549;8.684;-0.019;0.049;0.046;
20200827_200009;-0.579;3.278;8.341;-0.044;0.046;0.090;
20200827_200009;-0.582;5.672;8.712;-0.017;0.029;0.177;
20200827_200009;0.555;2.471;7.985;0.021;0.059;0.152;
20200827_200010;0.996;6.086;7.609;0.043;0.062;-0.016;
20200827_200010;-0.472;4.166;8.820;-0.022;0.066;-0.080;
20200827_200010;0.524;4.008;9.232;0.012;0.043;0.021;
20200827_200010;0.903;5.394;10.008;-0.027;0.043;-0.017;
20200827_200010;0.754;3.120;8.504;-0.048;0.054;-0.066;
20200827_200010;-0.115;4.099;7.070;0.009;0.081;-0.003;
20200827_200010;0.785;5.801;8.562;-0.023;0.048;0.011;
20200827_200010;0.287;5.126;6.725;0.015;0.136;-0.019;
20200827_200010;-0.053;5.739;10.652;0.018;0.009;-0.218;
20200827_200011;0.120;4.599;7.951;-0.024;-0.017;-0.116;
20200827_200011;-0.115;4.901;9.699;0.001;0.016;-0.082;
20200827_200011;1.317;5.626;-0.512;0.204;-0.111;-0.250;
20200827_200011;-0.287;4.451;2.916;-0.033;-0.160;-0.153;
20200827_200011;0.733;5.205;6.819;-0.003;-0.126;0.038;
20200827_200011;-0.857;7.946;12.462;-0.089;-0.149;-0.133;
20200827_200011;-1.197;4.762;9.349;0.081;-0.008;0.240;
20200827_200011;0.101;6.196;9.699;0.147;-0.006;0.162;
20200827_200011;0.385;3.251;8.708;0.003;0.040;0.064;
20200827_200012;-0.139;4.482;10.123;-0.006;0.045;0.074;
20200827_200012;-0.115;4.487;5.437;-0.005;0.053;0.078;
20200827_200012;0.299;4.913;4.925;0.076;-0.030;-0.055;
20200827_200012;0.024;3.651;5.950;0.048;-0.003;0.149;
20200827_200012;0.771;3.182;5.459;0.005;0.032;0.169;
20200827_200012;0.996;3.752;9.687;0.076;-0.002;0.065;
20200827_200012;-0.417;4.848;6.732;0.031;0.018;0.107;
20200827_200012;-0.022;6.187;11.490;-0.017;0.194;0.403;
20200827_200012;0.994;5.004;9.998;0.027;0.225;0.036;
20200827_200012;1.853;3.405;8.813;0.014;0.111;-0.583;
20200827_200013;0.148;4.638;6.606;-0.020;-0.020;-0.599;
20200827_200013;-0.974;4.393;8.088;0.031;-0.057;-0.088;
20200827_200013;0.462;4.633;6.627;0.029;-0.055;-0.191;
20200827_200013;0.247;3.910;7.901;0.005;-0.102;-0.041;
20200827_200013;-0.915;3.852;6.431;0.035;-0.005;0.253;
20200827_200013;1.513;3.211;8.667;0.001;-0.106;-0.147;
20200827_200013;1.156;4.535;7.977;0.004;0.013;-0.041;
20200827_200013;-0.019;5.171;6.876;-0.002;-0.022;0.029;
20200827_200013;-0.206;5.708;9.203;-0.023;-0.092;-0.095;
20200827_200014;-0.184;5.684;8.885;0.015;-0.059;0.227;
20200827_200014;0.807;4.082;7.779;0.023;-0.020;0.075;
20200827_200014;1.264;4.712;10.970;-0.047;-0.027;-0.214;
20200827_200014;-0.242;5.193;9.517;-0.011;-0.064;0.046;
20200827_200014;-0.072;3.464;7.111;0.010;-0.001;0.193;
20200827_200014;-0.192;4.448;7.491;0.047;0.078;0.308;
20200827_200014;1.369;4.752;7.202;0.042;0.017;-0.028;
20200827_200014;0.160;4.219;2.801;0.001;0.120;0.107;
20200827_200014;0.615;3.160;5.531;-0.039;0.038;-0.050;
20200827_200014;2.176;5.203;7.305;0.003;0.030;-0.172;
20200827_200015;-1.551;5.734;8.971;0.027;0.030;-0.171;
20200827_200015;1.128;4.113;10.520;0.041;-0.023;-0.105;
20200827_200015;0.814;5.104;4.690;0.011;-0.051;-0.137;
20200827_200015;0.575;4.767;8.861;-0.006;-0.081;-0.501;
20200827_200015;-1.774;4.231;8.729;0.033;-0.050;0.134;
20200827_200015;-1.525;5.145;7.853;0.069;0.035;0.151;
20200827_200015;-0.833;3.809;7.357;-0.036;0.152;0.463;
20200827_200015;0.038;9.400;7.130;0.035;0.232;0.461;
20200827_200015;1.702;2.662;7.788;0.049;0.171;-0.431;
20200827_200016;2.555;4.214;8.531;0.022;-0.099;-1.017;
20200827_200016;-0.627;4.719;9.586;0.031;-0.179;-0.453;
20200827_200016;1.245;5.298;7.111;0.049;-0.136;0.016;
20200827_200016;-0.785;3.627;7.657;0.029;-0.064;0.157;
20200827_200016;0.457;4.374;10.288;-0.017;-0.061;-0.231;
20200827_200016;-1.595;4.276;6.778;0.023;-0.039;0.112;
20200827_200016;0.017;5.272;9.778;-0.050;0.009;0.142;
20200827_200016;-0.237;5.701;10.168;0.021;0.008;0.104;
20200827_200016;-0.828;3.364;8.193;-0.044;0.063;0.113;
20200827_200016;0.711;4.080;7.367;0.002;-0.053;-0.098;
20200827_200017;0.424;4.729;7.561;-0.010;-0.131;-0.315;
20200827_200017;-0.658;4.709;9.373;-0.021;-0.175;-0.001;
20200827_200017;0.395;4.695;9.802;0.008;-0.036;0.377;
20200827_200017;0.634;5.203;7.266;0.049;-0.022;0.084;
20200827_200017;-0.105;3.500;9.878;-0.011;-0.010;0.083;
20200827_200017;0.153;5.792;8.727;0.018;0.084;0.304;
20200827_200017;0.148;4.415;7.298;0.016;0.160;0.402;
20200827_200017;1.156;5.708;5.772;0.052;0.167;-0.157;
20200827_200017;-0.283;3.816;9.210;-0.007;0.185;-0.283;
20200827_200018;0.570;4.597;6.900;-0.037;-0.068;-0.397;
20200827_200018;0.804;4.159;6.258;0.074;-0.174;-0.574;
20200827_200018;-1.197;4.894;7.860;0.036;-0.223;-0.153;
20200827_200018;-0.077;6.120;9.720;0.008;-0.125;0.275;
20200827_200018;1.073;4.611;8.655;-0.023;-0.089;0.289;
20200827_200018;-0.713;2.701;8.684;-0.022;0.001;0.128;
20200827_200018;-0.977;5.349;9.759;-0.021;-0.016;0.496;
20200827_200018;-1.326;4.767;10.096;0.054;0.262;0.645;
20200827_200018;-1.336;4.427;7.065;0.006;0.213;0.279;
20200827_200018;-0.285;3.893;7.487;-0.003;0.154;-0.341;
20200827_200019;0.682;4.195;8.863;0.000;-0.078;-0.258;
20200827_200019;-0.673;5.126;7.010;-0.010;0.033;0.100;
20200827_200019;0.584;4.144;5.057;0.039;-0.011;0.114;
20200827_200019;1.731;5.344;6.290;0.002;-0.014;-0.198;
20200827_200019;0.594;4.221;10.772;-0.018;0.051;-0.066;
20200827_200019;-1.056;3.773;6.388;0.058;0.047;0.041;
20200827_200019;1.061;4.999;9.029;0.032;0.080;0.038;
20200827_200019;-0.467;4.848;8.940;-0.008;0.068;0.075;
20200827_200019;0.244;5.842;9.179;-0.027;0.050;0.099;
20200827_200020;-1.027;3.836;7.087;0.027;0.066;-0.146;
20200827_200020;0.783;3.905;9.373;0.016;-0.072;-0.212;
20200827_200020;-0.242;6.230;8.914;0.008;-0.017;0.029;
20200827_200020;-0.208;4.446;9.120;-0.037;-0.012;0.153;
20200827_200020;2.152;5.883;8.073;-0.028;-0.072;-0.190;
20200827_200020;0.639;4.365;7.494;0.012;-0.087;-0.274;
20200827_200020;-0.658;3.807;11.964;0.000;-0.066;-0.147;
20200827_200020;-1.073;5.557;9.316;0.013;-0.036;0.276;
20200827_200020;0.804;4.786;11.679;-0.003;0.004;0.429;
20200827_200020;0.910;5.713;5.938;0.060;0.070;0.279;
20200827_200021;-0.639;4.487;8.712;0.049;0.027;0.129;
20200827_200021;0.704;2.737;11.583;-0.076;0.019;0.081;
20200827_200021;0.412;5.614;9.242;-0.015;-0.001;-0.008;
20200827_200021;0.050;4.243;8.595;0.058;0.013;0.217;
20200827_200021;0.476;4.003;8.988;0.019;0.117;0.212;
20200827_200021;2.327;5.619;8.124;0.006;0.109;-0.158;
20200827_200021;0.953;3.060;11.021;-0.061;0.147;-0.365;
20200827_200021;0.096;4.650;7.999;0.026;0.090;-0.268;
20200827_200021;-1.348;4.099;8.837;0.035;0.119;-0.041;
20200827_200022;-0.160;4.580;8.349;-0.013;-0.052;-0.424;
20200827_200022;-0.306;5.447;7.365;-0.001;-0.092;-0.163;
20200827_200022;-1.939;3.608;10.427;-0.039;-0.172;-0.150;
20200827_200022;0.802;4.424;8.305;-0.001;-0.076;0.124;
20200827_200022;0.740;3.728;7.683;0.032;-0.220;-0.167;
20200827_200022;-0.017;4.961;8.622;0.004;-0.138;0.055;
20200827_200022;0.484;5.054;8.104;-0.020;-0.071;0.114;
20200827_200022;-0.029;4.295;5.437;-0.001;-0.022;0.022;
20200827_200022;-1.214;4.410;6.323;0.000;0.022;0.297;
20200827_200023;0.017;4.281;6.103;0.035;0.099;0.339;
20200827_200023;0.256;4.841;9.309;-0.003;0.141;0.185;
20200827_200023;-0.038;5.684;8.768;0.006;0.125;0.117;
20200827_200023;-0.426;3.033;8.466;0.031;0.031;-0.075;
20200827_200023;0.134;4.156;7.479;0.033;0.036;0.099;
20200827_200023;1.712;4.781;6.929;0.006;-0.063;-0.230;
20200827_200023;1.475;5.037;8.061;-0.007;-0.077;-0.133;
20200827_200023;1.882;6.651;7.312;-0.018;-0.045;-0.250;
20200827_200023;-0.486;3.570;6.249;0.018;0.015;-0.096;
20200827_200023;-2.344;4.602;7.113;-0.007;-0.057;0.029;
20200827_200024;-0.172;4.566;8.033;0.002;-0.023;0.302;
20200827_200024;0.651;4.322;10.379;-0.033;-0.026;0.085;
20200827_200024;0.402;5.605;7.712;-0.031;0.038;0.074;
20200827_200024;-1.207;3.740;7.803;0.054;0.027;0.289;
20200827_200024;1.350;4.149;7.865;0.017;0.108;0.305;
20200827_200024;-0.084;6.081;6.239;0.043;0.122;0.120;
20200827_200024;2.124;3.893;10.582;0.011;-0.035;-0.301;
20200827_200024;-0.007;5.045;9.105;-0.003;-0.032;-0.204;
20200827_200024;1.116;5.059;5.444;-0.021;-0.076;-0.096;
20200827_200025;0.215;3.498;6.608;0.031;0.089;-0.013;
20200827_200025;0.354;3.682;7.326;0.016;0.030;0.043;
20200827_200025;-1.293;5.655;7.005;0.034;0.105;0.113;
20200827_200025;1.551;4.628;9.222;-0.004;0.057;0.037;
20200827_200025;-0.041;6.388;9.048;-0.047;0.060;-0.136;
20200827_200025;-0.745;4.338;10.587;-0.040;-0.011;0.023;
20200827_200025;1.161;4.618;8.126;-0.019;-0.032;0.025;
20200827_200025;0.204;4.551;8.990;-0.003;-0.071;-0.156;
20200827_200025;0.960;4.372;9.795;-0.001;-0.159;-0.113;
20200827_200025;0.067;5.993;7.408;0.026;-0.050;0.150;
20200827_200026;2.191;3.323;9.371;-0.022;0.003;-0.041;
20200827_200026;0.625;3.742;6.527;0.057;0.088;0.082;
20200827_200026;0.776;4.908;6.314;0.018;0.179;0.113;
20200827_200026;0.572;5.188;7.939;0.055;0.132;-0.121;
20200827_200026;-0.326;5.452;7.788;-0.007;0.057;-0.359;
20200827_200026;-0.450;4.810;8.945;0.026;-0.047;-0.378;
20200827_200026;-0.630;5.013;7.321;0.049;-0.150;-0.127;
20200827_200026;0.055;5.650;6.522;0.046;-0.051;0.041;
20200827_200026;0.699;3.539;10.903;-0.010;-0.208;-0.195;
20200827_200027;1.209;5.717;5.801;0.008;-0.179;-0.026;
20200827_200027;0.745;5.938;6.036;-0.006;-0.116;-0.048;
20200827_200027;0.503;3.761;8.107;0.033;-0.139;0.054;
20200827_200027;-0.192;4.187;8.238;0.018;0.022;0.549;
20200827_200027;-0.165;4.748;7.985;0.033;0.134;0.295;
20200827_200027;1.039;4.925;10.278;-0.020;-0.038;-0.431;
20200827_200027;0.951;4.049;10.412;-0.038;-0.148;-0.516;
20200827_200027;-0.871;4.994;8.586;-0.018;-0.289;-0.404;
20200827_200027;-1.290;3.524;7.254;0.001;-0.250;0.554;
20200827_200028;-0.318;5.334;6.620;-0.021;0.002;0.947;
20200827_200028;0.625;3.091;8.021;-0.005;0.136;0.746;
20200827_200028;2.370;4.448;10.606;0.029;0.166;0.261;
20200827_200028;4.336;5.219;9.294;-0.010;0.092;-0.439;
20200827_200028;1.583;3.393;9.972;0.020;-0.009;-0.160;
20200827_200028;-1.353;4.829;7.343;0.034;0.166;0.329;
20200827_200028;0.043;3.548;6.883;0.096;0.217;0.378;
20200827_200028;0.414;4.300;10.032;-0.005;0.247;0.024;
20200827_200028;-0.043;5.693;7.441;-0.005;0.143;-0.162;
20200827_200028;-1.080;4.585;8.545;0.053;0.074;0.034;
20200827_200029;-0.687;4.865;9.914;0.016;0.095;0.132;
20200827_200029;-0.259;6.146;6.160;0.017;0.177;0.320;
20200827_200029;0.390;3.891;8.428;0.004;0.130;0.114;
20200827_200029;1.156;4.551;9.946;0.021;0.117;-0.065;
20200827_200029;0.852;4.633;6.579;-0.005;0.052;-0.250;
20200827_200029;1.527;4.827;10.154;-0.034;0.031;-0.167;
20200827_200029;-0.103;4.544;8.286;0.008;0.019;-0.191;
20200827_200029;0.172;4.563;7.920;-0.008;0.020;0.018;
20200827_200029;0.393;3.733;9.397;-0.014;0.027;-0.062;
20200827_200030;0.151;4.580;7.705;0.022;0.007;-0.202;
20200827_200030;0.836;4.271;7.877;0.010;-0.102;-0.390;
20200827_200030;-0.582;4.310;9.397;-0.004;-0.145;-0.388;
20200827_200030;-0.611;4.211;8.617;0.030;-0.185;-0.193;
20200827_200030;-1.590;4.652;7.836;0.047;-0.109;0.291;
20200827_200030;-0.694;4.568;7.944;0.073;-0.071;0.377;
20200827_200030;0.486;4.587;8.121;0.012;-0.036;0.201;
20200827_200030;-0.359;4.211;8.337;-0.001;0.016;0.170;
20200827_200030;0.551;4.561;7.906;0.013;-0.003;0.022;
20200827_200031;-0.278;4.389;8.894;-0.020;0.049;0.168;
20200827_200031;0.172;5.461;8.308;0.000;0.096;0.222;
20200827_200031;0.323;4.506;9.546;-0.004;0.050;0.073;
20200827_200031;0.271;3.745;9.445;0.017;0.072;0.025;
20200827_200031;-0.697;4.707;8.270;-0.015;0.134;0.179;
20200827_200031;0.239;4.786;8.215;0.000;0.170;0.234;
20200827_200031;0.587;4.293;9.371;-0.020;0.170;-0.017;
20200827_200031;1.027;4.513;7.920;0.009;0.129;-0.315;
20200827_200031;0.373;4.592;8.329;0.048;0.064;-0.522;
20200827_200031;0.637;4.724;8.897;0.009;-0.002;-0.638;
20200827_200032;0.575;4.336;9.290;0.038;-0.073;-0.650;
20200827_200032;-0.129;4.599;7.889;0.067;-0.165;-0.747;
20200827_200032;0.448;4.460;7.410;0.085;-0.189;-0.666;
20200827_200032;-0.795;3.677;7.185;0.118;-0.218;-0.459;
20200827_200032;-1.099;3.610;8.820;0.083;-0.198;-0.292;
20200827_200032;0.493;4.592;9.225;0.084;-0.250;-0.340;
20200827_200032;-0.421;4.063;9.139;0.085;-0.215;-0.240;
20200827_200032;-0.551;4.369;9.946;0.059;-0.177;-0.310;
20200827_200032;-0.860;4.465;7.661;0.087;-0.155;-0.125;
20200827_200033;-0.807;4.544;10.611;-0.127;-0.147;-0.226;
20200827_200033;2.037;4.729;27.612;-0.183;-0.279;-0.513;
20200827_200033;-2.665;2.440;-4.549;0.159;-0.126;-0.386;
20200827_200033;0.381;1.161;10.116;0.150;-0.250;-0.458;
20200827_200033;0.096;12.210;9.333;0.326;-0.232;-0.799;
20200827_200033;1.221;4.937;9.780;0.193;-0.306;-0.983;
20200827_200033;-1.968;4.068;6.723;0.155;-0.335;-0.717;
20200827_200033;-2.672;5.701;9.275;0.263;-0.254;-0.232;
20200827_200033;-1.312;2.646;8.842;0.211;-0.386;-0.385;
20200827_200033;3.395;6.665;8.679;0.150;-0.538;-0.234;
20200827_200034;-0.383;4.211;6.907;0.210;-0.308;-0.406;
20200827_200034;-0.970;2.411;6.314;0.069;-0.394;-0.623;
20200827_200034;0.158;6.170;5.418;0.020;-0.400;-0.342;
20200827_200034;0.366;6.134;7.781;0.087;-0.301;-0.146;
20200827_200034;-0.443;3.687;3.998;0.062;-0.335;-0.629;
20200827_200034;-4.997;2.119;9.222;0.076;-0.147;0.499;
20200827_200034;-1.049;4.515;7.379;0.101;0.157;1.118;
20200827_200034;1.985;4.513;7.379;0.015;0.068;0.153;
20200827_200034;0.740;5.279;6.436;-0.062;-0.088;-0.696;
20200827_200035;-0.974;3.768;8.571;0.042;-0.130;-0.632;
20200827_200035;0.776;4.927;9.431;-0.047;-0.271;-0.772;
20200827_200035;-2.198;5.066;9.390;0.006;-0.237;-0.550;
20200827_200035;-1.839;5.262;6.507;0.025;-0.294;-0.081;
20200827_200035;-2.471;3.785;9.859;-0.021;-0.106;0.743;
20200827_200035;-0.184;5.593;5.423;0.120;-0.009;0.623;
20200827_200035;0.450;4.132;8.423;0.001;-0.032;0.065;
20200827_200035;0.014;5.258;9.266;-0.056;-0.087;-0.165;
20200827_200035;-0.057;4.946;5.083;0.062;0.006;0.196;
20200827_200036;0.129;4.702;10.171;-0.027;0.002;-0.191;
20200827_200036;1.346;5.227;9.280;0.052;-0.095;-0.490;
20200827_200036;-0.306;3.745;5.904;0.017;-0.110;-0.372;
20200827_200036;-0.615;4.530;7.676;0.035;-0.074;0.019;
20200827_200036;1.997;5.653;8.696;0.066;-0.041;0.236;
20200827_200036;0.752;4.757;9.680;0.001;-0.057;-0.128;
20200827_200036;-0.589;5.653;4.487;0.063;-0.038;-0.148;
20200827_200036;-0.802;3.845;9.007;-0.015;0.062;0.349;
20200827_200036;-0.074;6.014;9.155;0.004;-0.048;-0.238;
20200827_200037;0.160;5.456;7.736;-0.040;-0.087;0.006;
20200827_200037;-0.057;4.216;8.408;-0.002;-0.007;0.325;
20200827_200037;0.946;5.588;8.205;-0.001;-0.000;0.200;
20200827_200037;-0.010;4.805;8.933;0.025;0.084;0.166;
20200827_200037;0.563;4.618;8.461;-0.021;0.009;-0.055;
20200827_200037;-0.022;4.166;10.072;0.074;0.002;-0.194;
20200827_200037;-0.443;5.083;9.984;-0.055;0.024;-0.222;
20200827_200037;-0.247;4.726;11.322;-0.035;-0.036;-0.152;
20200827_200037;0.366;3.160;8.531;-0.093;-0.011;-0.178;
20200827_200037;-0.242;4.851;9.000;0.016;-0.025;-0.115;
20200827_200038;0.448;3.780;6.251;0.022;-0.033;-0.186;
20200827_200038;-0.230;5.684;7.705;0.129;-0.065;-0.287;
20200827_200038;0.115;6.419;7.190;0.080;-0.051;-0.224;
20200827_200038;1.585;4.738;11.653;-0.006;-0.076;-0.208;
20200827_200038;-1.444;3.778;11.217;-0.104;-0.035;-0.178;
20200827_200038;0.201;4.032;5.866;0.025;-0.020;-0.005;
20200827_200038;-2.191;3.081;7.135;0.011;0.023;0.034;
20200827_200038;-0.012;1.532;13.874;-0.126;0.046;0.112;
20200827_200038;0.953;3.704;6.117;-0.006;-0.034;-0.175;
20200827_200039;1.757;6.378;7.247;0.023;-0.148;-0.459;
20200827_200039;-0.651;1.580;10.436;-0.103;-0.242;-0.724;
20200827_200039;-1.968;4.398;9.318;-0.035;-0.155;0.073;
20200827_200039;-2.919;4.403;6.828;0.046;-0.112;0.382;
20200827_200039;-1.566;4.372;4.788;0.055;-0.137;0.579;
20200827_200039;-0.256;4.324;7.159;-0.008;-0.067;0.425;
20200827_200039;1.640;3.512;7.602;0.026;-0.032;0.200;
20200827_200039;0.069;4.255;8.444;0.057;-0.027;0.275;
20200827_200039;-0.062;3.670;9.495;0.008;0.194;0.565;
20200827_200039;1.769;7.484;5.195;0.117;0.213;0.247;
20200827_200040;-0.275;3.369;8.382;0.058;0.091;-0.262;
20200827_200040;0.354;5.411;7.168;-0.001;0.053;-0.000;
20200827_200040;0.323;3.567;9.448;-0.038;0.275;0.494;
20200827_200040;0.311;4.748;6.962;0.014;0.375;0.345;
20200827_200040;0.316;5.425;8.073;0.098;0.320;-0.210;
20200827_200040;-0.385;3.979;5.660;0.038;0.195;-0.518;
20200827_200040;-1.240;4.197;7.487;0.017;0.118;-0.287;
20200827_200040;-0.678;4.858;8.471;-0.004;0.167;0.026;
20200827_200040;-0.476;4.827;8.432;0.062;-0.036;-0.451;
20200827_200041;0.251;5.859;8.947;0.083;-0.241;-0.780;
20200827_200041;0.086;4.817;6.328;0.084;-0.172;-0.286;
20200827_200041;-0.642;4.755;10.271;0.106;-0.091;-0.033;
20200827_200041;-0.218;5.109;9.534;0.022;-0.128;-0.180;
20200827_200041;0.204;4.788;9.139;0.030;-0.046;0.010;
20200827_200041;-0.450;4.662;7.908;0.021;0.017;-0.116;
20200827_200041;-0.294;4.391;9.091;-0.020;-0.035;-0.371;
20200827_200041;-0.134;1.935;10.032;-0.001;-0.138;-0.398;
20200827_200041;-0.704;5.844;7.386;0.021;-0.045;-0.260;
20200827_200041;-0.275;4.300;10.202;-0.093;-0.108;-0.423;
20200827_200042;0.833;4.465;6.424;0.017;-0.180;-0.533;
20200827_200042;1.001;5.181;8.399;0.132;-0.204;-0.633;
20200827_200042;-0.421;4.056;8.830;0.091;-0.376;-1.104;
20200827_200042;0.378;3.180;10.336;0.139;-0.427;-0.687;
20200827_200042;-1.810;1.621;10.058;0.059;-0.264;-0.297;
20200827_200042;-1.298;3.883;7.101;0.101;-0.268;-0.115;
20200827_200042;0.283;5.567;7.089;0.143;-0.141;0.219;
20200827_200042;-0.807;6.325;8.121;0.127;-0.099;-0.008;
20200827_200042;-0.670;6.220;9.610;0.062;-0.325;-0.400;
20200827_200043;1.539;4.231;8.825;0.055;-0.355;-0.307;
20200827_200043;0.534;2.217;8.655;0.063;-0.278;-0.458;
20200827_200043;-0.192;2.140;10.111;0.016;-0.178;-0.077;
20200827_200043;0.230;3.886;9.005;0.087;0.170;0.660;
20200827_200043;-0.833;4.729;9.359;0.029;0.373;0.548;
20200827_200043;-0.733;4.853;7.752;0.032;0.254;-0.003;
20200827_200043;0.311;4.719;9.395;0.023;0.206;-0.157;
20200827_200043;-1.932;3.488;8.351;0.021;-0.025;-0.865;
20200827_200043;-0.852;3.677;13.046;0.000;-0.154;-0.550;
20200827_200043;-0.733;4.166;8.064;0.081;0.226;0.342;
20200827_200044;-2.241;3.062;9.488;0.022;-0.027;-0.254;
20200827_200044;-0.517;5.004;9.074;0.082;-0.057;-0.071;
20200827_200044;-1.013;3.455;8.605;0.097;-0.306;-0.961;
20200827_200044;-3.472;6.014;6.780;0.158;-0.353;-0.697;
20200827_200044;-2.682;3.601;14.949;0.068;-0.341;-0.095;
20200827_200044;-2.873;2.883;6.744;0.179;-0.116;0.636;
20200827_200044;-1.164;4.003;7.374;0.076;-0.196;0.467;
20200827_200044;0.060;3.352;7.879;-0.077;0.052;0.836;
20200827_200044;1.537;0.733;10.716;0.052;0.229;0.853;
20200827_200045;1.671;3.244;4.863;0.073;0.283;0.363;
20200827_200045;0.089;5.504;7.465;0.019;0.030;-0.427;
20200827_200045;-0.735;3.333;8.784;-0.088;-0.455;-1.334;
20200827_200045;-2.794;2.990;8.861;0.005;-0.449;-1.055;
20200827_200045;0.622;1.623;8.301;-0.012;-0.324;-0.068;
20200827_200045;1.262;5.859;9.986;0.006;-0.270;-0.231;
20200827_200045;-0.929;5.210;8.016;-0.001;-0.342;-0.688;
20200827_200045;-0.953;4.889;7.879;0.034;-0.313;-0.407;
20200827_200045;-0.721;4.714;8.418;0.032;-0.173;0.065;
20200827_200045;-0.148;4.252;8.787;0.031;-0.058;0.424;
20200827_200046;0.690;4.563;8.315;0.011;-0.027;0.378;
20200827_200046;0.273;4.501;8.969;-0.004;-0.039;0.214;
20200827_200046;0.725;4.360;8.538;0.008;-0.003;0.227;
20200827_200046;0.127;4.537;8.346;0.013;-0.024;0.153;
20200827_200046;0.498;4.391;8.396;0.010;-0.058;0.098;
20200827_200046;0.991;4.532;8.375;0.011;-0.094;-0.007;
20200827_200046;1.056;4.480;8.447;0.009;-0.032;0.087;
20200827_200046;1.535;4.762;8.363;0.008;0.035;0.211;
20200827_200046;1.824;4.609;8.191;0.000;0.053;0.022;
20200827_200047;1.267;4.609;8.238;-0.007;0.060;-0.152;
20200827_200047;0.393;4.712;8.205;-0.012;0.116;-0.052;
20200827_200047;0.405;4.824;8.150;-0.007;0.107;-0.088;
20200827_200047;-0.419;4.800;8.236;-0.008;0.053;-0.203;
20200827_200047;0.208;4.932;8.076;-0.008;0.105;0.087;
20200827_200047;0.359;4.966;8.116;-0.005;0.063;-0.008;
20200827_200047;-0.031;4.932;8.186;-0.004;0.017;-0.073;
20200827_200047;0.141;4.865;8.212;-0.002;0.031;0.058;
20200827_200047;0.184;4.820;8.267;0.000;0.003;-0.011;
20200827_200047;-0.089;4.717;8.282;0.000;-0.007;-0.016;
20200827_200048;0.081;4.681;8.315;0.003;-0.008;0.054;
20200827_200048;0.318;4.705;7.709;-0.049;0.055;0.003;
