Timestamp;Accel_x;Accel_y;Accel_z;Gyro_x;Gyro_y;Gyro_z;
20200920_185315;0.362;4.147;8.593;0.072;-0.039;-0.002;
20200920_185315;0.309;4.113;8.617;-0.003;0.026;0.035;
20200920_185315;0.373;4.106;8.564;-0.010;0.032;0.040;
20200920_185316;0.194;4.051;8.605;-0.004;0.022;-0.013;
20200920_185316;-0.055;4.056;8.629;-0.000;0.002;-0.019;
20200920_185316;0.400;4.118;8.629;0.004;-0.010;0.030;
20200920_185316;0.340;4.125;8.595;-0.000;-0.001;0.001;
20200920_185316;0.230;4.080;8.619;-0.000;-0.000;0.013;
20200920_185316;0.517;4.226;8.260;0.001;-0.000;0.032;
20200920_185316;0.053;4.070;8.528;-0.003;0.025;0.053;
20200920_185316;0.639;4.135;8.662;0.004;-0.016;-0.022;
20200920_185316;0.912;4.049;8.679;-0.012;0.031;0.007;
20200920_185317;2.035;4.760;8.315;-0.033;0.116;0.020;
20200920_185317;0.500;3.737;8.593;-0.072;0.246;-0.034;
20200920_185317;-0.182;3.967;8.521;-0.066;0.232;-0.193;
20200920_185317;-0.869;3.675;8.633;-0.067;0.242;-0.149;
20200920_185317;-1.858;3.527;8.756;-0.050;0.163;-0.219;
20200920_185317;-1.614;3.776;8.657;-0.029;0.104;-0.026;
20200920_185317;-1.537;3.390;8.880;-0.022;0.076;-0.000;
20200920_185317;-1.377;3.723;8.569;-0.001;0.009;-0.108;
20200920_185317;-2.401;3.060;8.796;-0.021;0.059;0.151;
20200920_185317;-0.237;4.231;8.114;-0.032;0.087;0.461;
20200920_185318;-0.177;4.329;8.715;-0.015;0.086;-0.134;
20200920_185318;-1.820;4.377;9.304;-0.012;0.054;-0.386;
20200920_185318;-2.083;4.755;8.375;-0.004;0.089;-0.238;
20200920_185318;-2.792;4.894;8.018;-0.014;0.098;0.228;
20200920_185318;-1.317;4.719;8.571;-0.010;0.015;0.146;
20200920_185318;-1.539;3.345;7.290;0.027;-0.031;-0.464;
20200920_185318;-1.561;5.918;8.085;0.059;-0.101;-0.808;
20200920_185318;-3.285;5.200;8.497;0.122;-0.270;-0.979;
20200920_185318;-0.457;5.241;7.230;0.129;-0.291;-0.591;
20200920_185319;-2.203;3.807;9.069;0.127;-0.099;-0.000;
20200920_185319;-1.171;4.075;8.174;0.120;-0.197;-0.195;
20200920_185319;-1.152;4.796;8.535;0.056;-0.171;-0.475;
20200920_185319;-2.950;3.491;8.801;-0.021;-0.090;0.050;
20200920_185319;-2.040;2.552;8.964;-0.015;0.003;0.853;
20200920_185319;-0.728;1.891;9.960;-0.022;0.086;0.943;
20200920_185319;-0.848;2.981;8.399;-0.009;0.068;0.488;
20200920_185319;-0.903;5.593;8.516;-0.032;-0.020;-0.144;
20200920_185319;-1.561;4.053;7.920;-0.002;-0.064;-0.208;
20200920_185319;-0.484;3.771;9.407;0.061;-0.059;-0.061;
20200920_185320;-0.651;3.728;8.650;0.049;-0.050;-0.076;
20200920_185320;-0.436;3.553;8.384;-0.014;-0.031;0.161;
20200920_185320;-0.450;3.100;9.895;-0.076;0.052;0.090;
20200920_185320;0.029;3.397;9.558;-0.009;0.032;-0.225;
20200920_185320;-1.034;2.552;8.334;0.023;0.082;-0.284;
20200920_185320;-1.496;3.431;8.540;0.048;-0.033;-0.666;
20200920_185320;-2.478;4.032;8.174;0.086;-0.148;-0.688;
20200920_185320;-1.688;5.279;8.440;0.021;-0.160;-0.274;
20200920_185320;0.237;3.649;7.817;0.042;-0.131;-0.074;
20200920_185321;-0.002;1.899;10.870;-0.069;-0.043;-0.289;
20200920_185321;-1.350;3.182;9.160;0.068;-0.051;-0.539;
20200920_185321;0.781;5.219;7.559;0.094;-0.096;-0.482;
20200920_185321;-0.773;3.649;8.404;-0.012;-0.001;-0.355;
20200920_185321;-0.814;2.777;8.808;0.083;-0.045;-0.929;
20200920_185321;-1.367;2.346;9.838;0.111;-0.170;-1.288;
20200920_185321;-1.961;2.727;8.648;0.219;-0.275;-1.503;
20200920_185321;-1.527;1.611;12.869;0.393;-0.347;-0.862;
20200920_185321;-1.516;2.502;9.531;0.256;-0.273;-0.733;
20200920_185321;-2.148;3.622;9.218;0.312;-0.309;-0.631;
20200920_185322;-3.187;2.282;9.184;0.287;-0.313;-0.503;
20200920_185322;-2.057;5.279;7.740;0.290;-0.419;-0.022;
20200920_185322;-0.582;4.997;7.353;0.146;-0.273;0.565;
20200920_185322;-1.020;4.858;8.504;-0.000;-0.198;0.551;
20200920_185322;-0.771;3.859;8.066;0.076;-0.293;0.424;
20200920_185322;-3.694;1.322;10.645;-0.032;-0.295;0.655;
20200920_185322;-2.344;4.266;8.796;-0.074;-0.136;1.470;
20200920_185322;-1.410;4.927;6.965;-0.033;0.005;2.039;
20200920_185322;-0.105;5.464;8.619;-0.000;0.210;2.269;
20200920_185323;2.339;1.717;11.140;0.226;0.263;2.020;
20200920_185323;4.056;2.591;6.958;0.350;0.439;0.753;
20200920_185323;4.554;2.626;8.198;0.227;0.342;-0.946;
20200920_185323;0.115;3.558;9.725;0.051;0.283;-0.710;
20200920_185323;-0.816;3.304;8.499;-0.029;0.168;-0.066;
20200920_185323;0.706;2.919;7.515;0.053;0.160;0.429;
20200920_185323;-0.620;3.606;9.653;0.010;0.234;0.549;
20200920_185323;0.206;4.053;8.701;0.055;0.189;0.336;
20200920_185323;0.201;3.891;5.842;0.141;0.255;0.135;
20200920_185324;1.302;3.309;10.271;0.080;0.266;0.026;
20200920_185324;1.798;3.986;9.476;0.037;0.210;-0.204;
20200920_185324;0.455;3.802;9.701;0.082;0.229;-0.174;
20200920_185324;-0.086;4.597;9.474;0.056;0.140;-0.238;
20200920_185324;-1.293;4.669;7.740;0.028;0.115;-0.198;
20200920_185324;0.134;3.584;9.175;0.127;0.079;-0.147;
20200920_185324;0.912;4.329;8.808;0.110;-0.028;-0.726;
20200920_185324;0.615;3.788;10.635;0.051;-0.187;-0.998;
20200920_185324;0.168;4.748;7.475;0.196;-0.307;-0.942;
20200920_185324;-4.113;4.992;9.534;0.075;-0.376;-0.027;
20200920_185325;-2.231;4.575;4.764;0.038;-0.260;1.095;
20200920_185325;0.000;4.159;4.539;-0.025;0.004;1.312;
20200920_185325;-0.517;5.164;14.315;-0.296;0.063;0.643;
20200920_185325;0.007;3.989;8.940;-0.063;0.070;0.129;
20200920_185325;1.008;3.326;7.982;-0.137;0.067;-0.097;
20200920_185325;-0.424;2.579;7.034;0.022;0.148;0.209;
20200920_185325;-1.259;5.198;9.483;-0.023;0.041;0.130;
20200920_185325;-0.620;7.973;9.594;-0.003;0.094;0.351;
20200920_185325;0.163;1.918;11.734;-0.026;0.014;0.476;
20200920_185325;0.326;3.812;7.987;-0.003;0.190;0.531;
20200920_185326;-0.299;3.958;11.885;0.030;0.202;0.092;
20200920_185326;0.800;2.052;13.906;-0.082;0.227;-0.113;
20200920_185326;0.067;-2.614;8.243;0.142;0.210;-0.129;
20200920_185326;1.784;8.813;12.100;0.104;0.179;-0.178;
20200920_185326;1.690;3.120;5.660;-0.133;0.113;-0.383;
20200920_185326;1.410;1.666;6.337;0.141;0.106;-0.538;
20200920_185326;0.402;5.080;10.867;-0.062;0.012;-0.333;
20200920_185326;0.091;3.268;9.105;-0.121;0.019;-0.359;
20200920_185326;-1.923;4.125;12.186;-0.019;0.004;0.035;
20200920_185327;-1.176;3.790;7.539;0.095;0.087;0.243;
20200920_185327;-0.019;1.604;9.629;0.164;0.049;-0.034;
20200920_185327;0.713;2.796;4.990;0.035;0.084;-0.205;
20200920_185327;-0.211;7.341;10.211;-0.097;0.104;-0.304;
20200920_185327;1.058;3.297;7.671;-0.009;0.103;-0.423;
20200920_185327;1.156;1.604;-0.596;0.581;0.098;-0.668;
20200920_185327;-2.519;8.691;4.108;-0.263;-0.151;-0.701;
20200920_185327;-0.812;5.612;1.882;0.098;-0.149;-0.939;
20200920_185327;-3.311;8.296;2.701;-0.406;-0.252;-0.536;
20200920_185327;-1.662;3.948;9.062;0.309;-0.259;-0.605;
20200920_185328;-2.492;2.796;9.462;-0.012;-0.372;-0.172;
20200920_185328;-1.216;5.878;9.632;0.232;-0.337;0.043;
20200920_185328;-1.937;5.878;8.181;0.093;-0.374;0.017;
20200920_185328;-0.795;4.511;6.273;0.051;-0.349;0.246;
20200920_185328;-1.384;4.678;10.386;0.005;-0.272;0.412;
20200920_185328;-0.443;5.454;4.937;0.086;-0.191;0.753;
20200920_185328;-1.911;3.026;8.420;-0.303;-0.060;0.758;
20200920_185328;0.160;2.816;7.140;0.047;0.083;0.796;
20200920_185328;1.336;5.279;2.528;-0.121;0.176;0.484;
20200920_185329;-1.731;0.225;19.199;0.343;0.248;0.462;
20200920_185329;-0.369;2.028;12.802;0.021;0.309;0.314;
20200920_185329;2.564;2.327;8.686;-0.240;0.270;-0.116;
20200920_185329;2.291;5.693;7.199;0.189;0.204;-0.549;
20200920_185329;-1.235;1.568;12.306;0.186;0.152;-0.650;
20200920_185329;0.596;2.768;5.550;-0.065;-0.087;-0.360;
20200920_185329;-1.906;6.033;10.788;0.056;-0.180;-0.232;
20200920_185329;1.348;-4.994;23.099;0.314;-0.300;-0.095;
20200920_185329;-4.618;2.428;9.048;-0.454;-0.382;0.803;
20200920_185329;0.113;10.697;-2.732;0.192;-0.443;0.577;
20200920_185330;1.132;1.626;33.052;1.721;0.107;0.676;
20200920_185330;-2.107;1.899;12.646;0.307;-0.192;1.129;
20200920_185330;-2.523;-5.679;23.624;0.425;0.054;0.804;
20200920_185330;-13.008;12.831;17.854;0.558;0.231;0.174;
20200920_185330;-2.392;8.128;10.731;1.292;0.257;1.719;
20200920_185330;0.318;-14.559;9.206;-0.016;0.329;0.420;
20200920_185330;6.558;8.095;-4.934;-4.793;-0.214;-0.362;
20200920_185330;-0.613;0.065;12.349;0.583;0.576;0.378;
20200920_185330;1.975;3.761;14.892;0.061;0.360;0.450;
20200920_185330;3.163;2.636;6.531;0.157;0.495;-0.076;
20200920_185331;2.674;2.677;8.466;0.167;0.320;-0.688;
20200920_185331;0.218;4.044;11.487;0.152;0.334;-0.659;
20200920_185331;-1.590;4.015;10.027;0.037;0.004;-0.677;
20200920_185331;-0.558;4.666;7.602;-0.052;0.065;0.087;
20200920_185331;0.421;3.970;9.419;-0.042;-0.027;-0.073;
20200920_185331;-0.309;3.838;7.125;0.079;-0.111;-0.126;
20200920_185331;-1.226;2.971;10.046;-0.079;-0.063;0.124;
20200920_185331;1.918;4.441;7.235;-0.124;0.015;0.006;
20200920_185331;-0.632;4.918;8.279;-0.063;0.025;0.083;
20200920_185332;0.795;4.046;9.402;-0.064;0.036;0.043;
20200920_185332;-1.238;3.857;10.230;-0.002;0.090;0.160;
20200920_185332;0.615;4.123;6.325;0.061;0.111;0.166;
20200920_185332;-0.373;4.154;9.021;0.014;0.185;-0.051;
20200920_185332;-0.024;3.972;9.313;-0.036;0.135;-0.301;
20200920_185332;0.508;3.630;8.509;0.057;0.048;-0.437;
20200920_185332;0.347;2.902;10.257;0.065;-0.080;-0.573;
20200920_185332;-1.650;4.779;8.612;0.107;-0.227;-0.465;
20200920_185332;-0.441;3.962;7.676;0.082;-0.265;0.038;
20200920_185333;-1.039;4.300;8.487;0.089;-0.199;0.200;
20200920_185333;0.326;3.613;7.034;0.026;-0.176;0.176;
20200920_185333;-0.500;4.334;7.104;0.054;-0.071;0.397;
20200920_185333;0.278;4.750;8.571;0.055;0.033;0.510;
20200920_185333;0.843;3.620;7.161;0.016;0.104;0.214;
20200920_185333;1.293;2.540;4.796;-0.061;0.125;-0.101;
20200920_185333;-0.589;3.005;8.983;-0.016;0.047;-0.114;
20200920_185333;0.622;0.165;10.376;0.089;0.012;-0.081;
20200920_185333;-1.130;5.054;10.195;0.019;-0.006;-0.062;
20200920_185333;1.065;4.808;9.792;-0.020;-0.072;-0.241;
20200920_185334;-1.453;4.583;7.092;0.010;-0.109;-0.003;
20200920_185334;-0.821;3.053;8.820;-0.056;-0.082;0.303;
20200920_185334;-0.795;5.674;6.440;-0.038;-0.043;0.457;
20200920_185334;0.512;4.606;7.796;0.018;0.064;0.339;
20200920_185334;-0.591;4.324;9.946;0.027;0.144;0.214;
20200920_185334;-0.802;4.353;7.858;0.062;0.188;0.275;
20200920_185334;0.160;3.469;8.104;0.037;0.214;-0.017;
20200920_185334;0.912;4.494;7.305;0.108;0.168;-0.381;
20200920_185334;0.436;3.376;8.614;0.007;0.031;-0.538;
20200920_185335;-1.331;4.764;7.889;-0.011;-0.141;-0.322;
20200920_185335;0.057;5.507;8.698;-0.013;-0.212;-0.116;
20200920_185335;-1.410;4.800;10.144;-0.035;-0.075;0.385;
20200920_185335;-0.692;4.772;8.921;0.073;0.027;0.420;
20200920_185335;0.728;4.116;7.286;-0.015;0.106;0.285;
20200920_185335;0.575;4.008;9.029;-0.010;0.259;0.071;
20200920_185335;-0.096;3.871;8.212;-0.013;0.136;-0.375;
20200920_185335;-0.124;4.492;8.739;0.042;0.009;-0.572;
20200920_185335;1.602;3.792;7.894;0.028;-0.080;-0.422;
20200920_185335;0.457;2.720;18.306;-0.206;-0.111;-0.173;
20200920_185336;-2.739;4.865;5.454;0.029;-0.212;-0.083;
20200920_185336;-0.177;3.498;7.676;0.063;-0.150;0.249;
20200920_185336;-0.079;4.166;8.464;0.114;-0.042;0.455;
20200920_185336;-0.103;4.197;8.930;-0.016;0.010;0.114;
20200920_185336;-0.266;3.795;9.766;-0.039;0.034;0.225;
20200920_185336;0.807;3.077;10.740;-0.023;0.113;0.090;
20200920_185336;-0.424;4.779;9.720;-0.036;0.037;-0.183;
20200920_185336;-0.912;5.291;11.360;-0.094;-0.033;-0.258;
20200920_185336;-0.718;5.227;7.063;-0.040;-0.107;0.027;
20200920_185336;-0.201;2.981;8.310;0.053;-0.020;0.164;
20200920_185337;0.235;5.480;8.416;0.052;0.050;0.223;
20200920_185337;0.462;2.229;10.611;-0.091;0.037;0.266;
20200920_185337;1.475;5.260;6.653;0.015;0.148;0.032;
20200920_185337;-0.108;2.727;10.420;0.010;0.123;-0.175;
20200920_185337;-0.366;3.752;8.940;-0.037;-0.028;-0.447;
20200920_185337;-1.420;4.697;9.206;-0.020;-0.114;-0.302;
20200920_185337;-0.670;5.660;9.002;-0.014;-0.151;-0.092;
20200920_185337;-0.148;5.049;9.163;0.065;-0.163;0.107;
20200920_185337;-0.907;5.119;10.104;-0.007;-0.099;0.189;
20200920_185338;0.802;4.949;6.941;0.126;-0.000;0.544;
20200920_185338;-0.069;3.687;9.938;0.124;0.089;0.174;
20200920_185338;0.871;5.112;7.518;-0.060;0.186;-0.169;
20200920_185338;-0.117;4.393;9.203;0.029;0.125;-0.087;
20200920_185338;0.170;4.147;9.309;-0.029;0.026;-0.108;
20200920_185338;-0.819;4.231;8.119;0.089;-0.014;-0.211;
20200920_185338;0.481;2.375;9.388;0.019;-0.080;-0.025;
20200920_185338;-0.476;3.639;6.290;-0.090;-0.012;-0.045;
20200920_185338;-0.606;6.333;-0.457;0.437;0.049;-0.019;
20200920_185339;0.852;2.112;13.599;0.077;-0.026;-0.179;
20200920_185339;0.910;-1.319;12.452;-0.164;-0.017;-0.047;
20200920_185339;-0.546;3.338;9.948;-0.097;-0.027;0.031;
20200920_185339;-0.508;3.651;9.392;-0.053;-0.018;0.014;
20200920_185339;-0.450;3.953;7.068;-0.037;-0.058;0.025;
20200920_185339;-0.196;5.253;4.276;0.145;-0.178;-0.041;
20200920_185339;0.790;4.894;3.400;0.086;-0.018;0.337;
20200920_185339;2.363;2.859;7.898;-0.130;-0.018;0.111;
20200920_185339;-0.232;2.480;12.040;-0.063;0.043;-0.044;
20200920_185339;0.383;4.791;8.574;0.005;0.071;0.079;
20200920_185340;-0.429;3.879;9.503;0.085;0.086;-0.043;
20200920_185340;1.130;5.057;8.329;0.043;0.010;-0.047;
20200920_185340;0.625;4.666;10.640;0.007;-0.072;-0.224;
20200920_185340;-1.949;2.976;9.237;0.131;0.017;0.047;
20200920_185340;-0.235;3.790;7.898;0.016;-0.040;0.015;
20200920_185340;1.109;3.807;8.545;-0.029;0.012;0.007;
20200920_185340;0.096;3.249;10.309;-0.009;0.001;-0.052;
20200920_185340;-0.503;5.351;6.347;0.003;-0.015;0.138;
20200920_185340;0.663;4.836;7.422;-0.018;0.087;0.081;
20200920_185341;-0.239;4.226;10.036;-0.002;0.058;-0.151;
20200920_185341;-2.421;3.656;8.377;0.039;0.088;-0.016;
20200920_185341;-0.433;2.243;11.535;-0.105;0.012;0.025;
20200920_185341;0.752;3.864;9.917;0.056;-0.015;-0.173;
20200920_185341;0.833;3.644;7.748;0.004;-0.019;-0.234;
20200920_185341;-0.893;4.530;5.382;0.140;-0.109;-0.262;
20200920_185341;-3.608;3.625;9.041;-0.034;-0.153;0.108;
20200920_185341;0.084;2.073;9.213;-0.124;-0.064;0.495;
20200920_185341;-0.836;4.824;8.329;0.054;0.015;0.187;
20200920_185342;-0.242;4.887;6.879;0.152;0.047;0.146;
20200920_185342;-0.431;2.880;9.673;-0.068;0.010;0.092;
20200920_185342;0.893;5.069;7.209;-0.055;0.017;-0.102;
20200920_185342;-1.183;4.796;8.696;-0.167;-0.043;-0.090;
20200920_185342;-0.769;4.767;8.114;-0.064;-0.100;0.061;
20200920_185342;-0.297;4.231;9.977;-0.037;0.062;0.314;
20200920_185342;-0.012;3.335;7.748;-0.007;0.152;0.235;
20200920_185342;1.403;3.802;10.458;-0.108;0.125;-0.077;
20200920_185342;1.010;3.021;8.351;0.032;0.122;-0.338;
20200920_185342;-0.891;3.706;10.858;-0.081;-0.011;-0.256;
20200920_185343;0.464;3.467;8.698;-0.023;0.006;0.062;
20200920_185343;-1.106;5.392;9.141;0.037;0.058;0.210;
20200920_185343;0.273;2.418;11.404;-0.030;0.068;-0.089;
20200920_185343;0.797;4.484;7.379;0.017;-0.004;-0.305;
20200920_185343;0.606;3.747;10.930;0.096;-0.087;-0.184;
20200920_185343;-1.283;4.180;10.501;-0.018;-0.091;0.179;
20200920_185343;-0.766;3.740;7.163;0.042;-0.052;0.292;
20200920_185343;0.062;3.967;5.696;-0.074;0.017;0.105;
20200920_185343;-1.159;3.170;12.378;0.160;-0.036;-0.125;
20200920_185344;-0.479;2.890;9.483;0.092;-0.108;-0.026;
20200920_185344;0.065;4.614;10.381;0.011;-0.060;0.133;
20200920_185344;1.429;4.343;8.406;-0.045;-0.064;0.096;
20200920_185344;-0.060;3.785;11.791;0.019;0.003;0.280;
20200920_185344;-0.359;1.609;9.012;-0.010;0.075;0.167;
20200920_185344;-0.371;2.538;9.057;-0.083;0.087;0.136;
20200920_185344;-1.233;4.767;7.652;0.040;0.182;0.148;
20200920_185344;0.148;3.747;8.849;0.001;0.135;0.052;
20200920_185344;-0.050;4.156;8.906;-0.021;0.140;0.057;
20200920_185345;0.105;4.003;10.197;0.004;0.210;-0.121;
20200920_185345;0.630;4.551;7.276;0.027;0.145;-0.252;
20200920_185345;0.306;4.226;9.436;0.040;0.130;-0.372;
20200920_185345;-0.237;3.306;10.980;0.107;0.045;-0.333;
20200920_185345;0.215;3.187;10.489;0.089;0.050;-0.337;
20200920_185345;0.539;3.570;8.930;0.109;-0.016;-0.274;
20200920_185345;-0.603;2.981;7.851;0.108;-0.108;-0.291;
20200920_185345;-0.467;3.833;9.048;0.063;-0.138;-0.258;
20200920_185345;-1.800;2.878;7.748;0.021;-0.192;-0.199;
20200920_185345;-1.286;4.650;6.989;0.115;-0.237;-0.223;
20200920_185346;-1.472;2.761;9.452;0.019;-0.297;0.002;
20200920_185346;-1.159;3.096;11.413;0.015;-0.269;0.218;
20200920_185346;-0.788;2.988;10.439;-0.021;-0.196;0.296;
20200920_185346;-0.627;3.491;8.497;0.023;-0.120;0.319;
20200920_185346;-0.615;3.572;9.002;-0.019;-0.034;0.282;
20200920_185346;0.515;4.712;8.547;-0.048;0.001;0.210;
20200920_185346;-0.383;4.317;8.442;0.062;0.095;0.235;
20200920_185346;0.038;3.874;10.278;-0.009;0.113;0.180;
20200920_185346;1.760;3.129;9.333;-0.021;0.082;0.153;
20200920_185347;-0.651;2.988;10.118;-0.030;0.151;0.070;
20200920_185347;0.345;2.885;9.359;0.016;0.212;-0.050;
20200920_185347;1.089;4.101;4.865;0.075;0.116;-0.300;
20200920_185347;-0.338;1.199;13.180;-0.087;0.098;-0.264;
20200920_185347;-2.411;5.583;9.562;-0.007;-0.000;-0.465;
20200920_185347;-0.165;2.193;9.697;-0.031;-0.047;-0.155;
20200920_185347;-0.366;4.662;7.649;0.084;-0.155;-0.192;
20200920_185347;-0.124;2.404;7.305;-0.043;-0.107;0.106;
20200920_185347;0.376;4.539;13.199;0.044;-0.170;0.007;
20200920_185347;-1.092;4.942;7.740;-0.047;-0.131;0.159;
20200920_185348;-0.594;2.734;8.260;-0.042;-0.017;0.446;
20200920_185348;0.345;2.351;8.248;0.047;0.120;0.370;
20200920_185348;0.266;2.660;9.086;0.002;0.144;-0.068;
20200920_185348;-0.196;2.140;10.896;0.118;0.097;-0.129;
20200920_185348;-0.840;3.187;11.480;-0.107;0.135;0.072;
20200920_185348;-0.242;4.930;10.934;-0.016;0.091;-0.148;
20200920_185348;-0.433;3.498;7.954;-0.094;0.013;-0.170;
20200920_185348;-1.958;4.599;0.759;0.332;0.062;0.128;
20200920_185348;-0.627;2.298;7.724;0.072;0.123;0.262;
20200920_185349;-0.077;4.721;6.850;0.008;0.186;0.034;
20200920_185349;-0.785;3.318;9.699;0.288;0.107;-0.178;
20200920_185349;0.663;2.820;9.064;-0.061;0.147;-0.173;
20200920_185349;-0.199;4.530;7.669;0.043;0.188;-0.412;
20200920_185349;-0.297;1.116;10.819;-0.014;0.036;-0.810;
20200920_185349;0.836;4.422;11.140;0.028;-0.157;-0.813;
20200920_185349;-0.333;3.431;9.582;0.067;-0.173;-0.514;
20200920_185349;-0.170;3.618;10.283;0.101;-0.179;-0.394;
20200920_185349;-0.587;4.034;9.768;0.085;-0.154;-0.421;
20200920_185349;-2.212;4.305;8.643;0.072;-0.173;-0.174;
20200920_185350;-0.393;1.858;10.369;-0.020;-0.040;0.227;
20200920_185350;1.894;1.446;8.832;-0.080;-0.111;-0.395;
20200920_185350;-3.117;1.702;14.128;0.113;0.115;-0.629;
20200920_185350;-2.100;0.699;12.344;-0.032;-0.087;-0.826;
20200920_185350;1.504;3.728;13.544;0.205;-0.159;-0.668;
20200920_185350;1.396;4.970;10.537;0.001;-0.127;-0.663;
20200920_185350;-0.886;3.093;7.633;0.087;-0.163;-0.883;
20200920_185350;-1.930;-2.459;9.412;-0.036;-0.174;-0.586;
20200920_185350;0.189;2.957;10.211;0.153;-0.220;-0.389;
20200920_185351;-4.302;6.294;8.107;0.001;-0.127;-0.284;
20200920_185351;-0.230;1.537;18.220;-0.115;-0.212;-0.437;
20200920_185351;0.086;3.687;15.629;0.040;-0.149;-0.551;
20200920_185351;-1.489;7.559;-5.289;0.213;-0.271;-0.491;
20200920_185351;1.836;7.331;-12.718;0.772;-0.366;-0.667;
20200920_185351;2.308;4.671;6.816;0.092;-0.344;-0.708;
20200920_185351;-3.385;6.792;6.244;0.096;-0.172;-0.399;
20200920_185351;-4.099;2.823;7.245;-0.045;-0.218;-0.195;
20200920_185351;0.429;2.291;10.640;0.005;-0.139;-0.057;
20200920_185351;-0.450;4.803;9.445;0.094;-0.111;-0.644;
20200920_185352;-1.618;5.904;8.894;0.254;-0.259;-0.777;
20200920_185352;-1.073;2.121;9.833;0.192;-0.464;-0.383;
20200920_185352;-2.174;8.186;7.896;0.254;-0.435;-0.092;
20200920_185352;1.745;4.123;6.088;0.140;-0.356;0.009;
20200920_185352;-0.045;6.201;7.597;-0.016;-0.385;0.040;
20200920_185352;-2.116;2.722;7.958;0.033;-0.256;-0.104;
20200920_185352;-0.656;4.750;7.968;0.034;-0.194;0.311;
20200920_185352;1.207;3.903;6.627;0.168;-0.118;0.225;
20200920_185352;-3.905;6.472;8.717;0.050;-0.157;0.065;
20200920_185353;-1.003;3.783;8.143;0.085;-0.262;0.030;
20200920_185353;-2.591;4.377;6.697;0.030;-0.208;0.359;
20200920_185353;1.877;3.419;7.377;-0.116;-0.095;0.363;
20200920_185353;-0.187;5.004;8.246;-0.131;-0.048;0.134;
20200920_185353;-0.922;4.341;6.567;-0.046;0.095;0.235;
20200920_185353;0.869;4.834;6.749;0.083;0.106;0.269;
20200920_185353;0.239;6.069;8.418;0.006;0.290;0.045;
20200920_185353;-0.275;3.677;6.400;-0.044;0.167;-0.244;
20200920_185353;0.354;4.192;6.699;0.050;-0.066;-0.177;
20200920_185353;-2.588;6.522;7.688;0.027;-0.094;-0.108;
20200920_185354;0.354;3.373;11.363;-0.249;-0.080;0.329;
20200920_185354;2.342;4.774;8.265;0.015;0.144;-0.082;
20200920_185354;-0.773;5.310;8.241;0.071;0.008;-0.164;
20200920_185354;-0.283;2.303;10.621;0.187;0.113;0.102;
20200920_185354;-0.141;3.287;12.945;0.138;0.066;-0.169;
20200920_185354;-0.974;4.204;9.560;-0.014;-0.034;-0.191;
20200920_185354;-0.998;2.646;11.054;-0.051;-0.121;0.065;
20200920_185354;1.283;4.221;6.596;0.031;-0.148;0.249;
20200920_185354;1.274;4.614;6.467;-0.011;-0.122;0.174;
20200920_185355;-0.211;3.816;7.216;0.095;-0.061;-0.020;
20200920_185355;-1.085;4.999;7.484;0.051;0.075;0.349;
20200920_185355;-0.924;4.836;9.577;0.088;0.073;0.136;
20200920_185355;-1.104;2.962;7.171;0.063;0.200;0.167;
20200920_185355;1.053;3.742;11.866;0.096;0.062;-0.189;
20200920_185355;-0.515;4.642;7.185;-0.098;0.025;-0.204;
20200920_185355;0.089;4.173;7.915;0.104;-0.019;0.017;
20200920_185355;0.105;2.531;8.849;-0.023;0.027;-0.041;
20200920_185355;0.182;4.164;6.914;0.037;0.138;0.052;
20200920_185355;1.547;4.355;8.135;0.012;-0.017;-0.382;
20200920_185356;-2.107;3.397;7.954;-0.085;-0.027;-0.153;
20200920_185356;-0.783;4.597;8.219;-0.086;-0.124;-0.007;
20200920_185356;0.278;4.214;7.958;0.013;-0.138;0.073;
20200920_185356;0.062;4.587;7.508;0.016;-0.096;0.250;
20200920_185356;0.579;5.875;3.333;-0.215;0.009;0.214;
20200920_185356;-0.019;4.987;8.667;0.022;0.154;0.206;
20200920_185356;0.962;2.160;11.535;-0.099;0.122;-0.218;
20200920_185356;-1.774;4.365;5.995;-0.014;0.026;-0.161;
20200920_185356;0.038;4.932;7.966;-0.069;-0.006;-0.050;
20200920_185357;0.881;4.348;7.360;0.151;0.019;-0.101;
20200920_185357;1.537;4.290;8.365;-0.108;-0.040;-0.375;
20200920_185357;0.031;3.433;9.974;0.036;0.029;-0.060;
20200920_185357;1.279;4.178;10.336;-0.144;-0.072;-0.292;
20200920_185357;-5.665;5.061;11.423;0.096;-0.004;-0.334;
20200920_185357;-1.073;1.178;11.401;-0.217;-0.327;0.091;
20200920_185357;-4.978;6.041;17.439;0.005;-0.314;0.497;
20200920_185357;-3.294;1.073;4.805;0.022;0.072;0.464;
20200920_185357;1.602;4.247;6.074;0.121;-0.066;0.105;
20200920_185357;-1.429;4.108;9.055;0.173;0.018;0.277;
20200920_185358;0.800;5.571;9.957;0.020;0.090;0.303;
20200920_185358;-0.321;2.806;7.898;0.101;0.164;0.058;
20200920_185358;-0.462;3.862;4.678;0.049;0.216;0.270;
20200920_185358;0.634;1.255;7.582;-0.000;0.088;-0.261;
20200920_185358;0.771;5.655;11.119;0.018;-0.023;-0.187;
20200920_185358;-1.331;3.912;10.300;0.076;-0.065;-0.047;
20200920_185358;0.357;5.377;9.206;-0.114;-0.053;0.183;
20200920_185358;0.352;4.515;6.788;-0.025;0.045;0.150;
20200920_185358;-1.475;3.170;8.981;-0.033;0.202;0.102;
20200920_185359;-0.017;4.130;7.786;0.085;0.248;0.018;
20200920_185359;0.622;6.543;6.737;0.164;0.214;-0.173;
20200920_185359;-0.622;4.729;7.525;-0.062;0.186;-0.225;
20200920_185359;0.101;3.938;7.973;0.055;0.031;-0.362;
20200920_185359;-0.522;4.034;10.384;-0.006;-0.031;-0.196;
20200920_185359;0.584;3.455;7.503;0.059;-0.140;-0.193;
20200920_185359;0.852;6.357;3.369;0.263;-0.144;-0.123;
20200920_185359;0.809;1.808;11.540;0.072;-0.173;-0.034;
20200920_185359;-1.286;2.722;8.145;-0.105;-0.115;0.229;
20200920_185400;-0.105;4.987;9.639;-0.063;0.009;0.282;
20200920_185400;-0.948;3.716;7.245;0.143;0.062;0.039;
20200920_185400;-0.201;3.967;7.338;0.120;0.082;-0.002;
20200920_185400;0.491;4.525;5.042;-0.109;0.034;-0.260;
20200920_185400;-0.848;3.996;5.375;0.068;-0.110;-0.205;
20200920_185400;1.214;4.178;6.273;-0.125;-0.122;-0.025;
20200920_185400;-0.874;4.187;6.862;-0.054;-0.147;-0.030;
20200920_185400;-0.984;5.892;5.581;0.010;-0.159;0.084;
20200920_185400;0.663;4.288;6.515;0.030;-0.117;0.324;
20200920_185400;-0.029;5.363;5.344;0.229;0.066;0.225;
20200920_185401;-1.362;6.416;6.637;0.012;0.019;0.045;
20200920_185401;0.953;1.274;7.628;0.033;0.058;0.027;
20200920_185401;-2.454;4.458;9.304;0.140;0.090;0.086;
20200920_185401;0.917;4.695;7.992;0.049;0.067;0.112;
20200920_185401;-4.128;13.094;-10.776;0.688;0.245;-0.481;
20200920_185401;-0.606;15.172;5.899;-0.154;-0.161;-0.029;
20200920_185401;0.397;-2.076;5.629;-0.006;-0.155;0.508;
20200920_185401;3.170;4.714;2.112;0.246;0.135;0.652;
20200920_185401;-0.982;3.180;6.270;0.179;0.241;0.160;
20200920_185402;-0.584;2.555;10.460;0.126;0.176;-0.116;
20200920_185402;-1.580;3.481;10.020;-0.152;0.113;-0.269;
20200920_185402;-1.571;5.655;5.801;0.053;-0.006;-0.203;
20200920_185402;-0.484;4.597;9.474;0.035;-0.145;-0.094;
20200920_185402;-1.884;2.744;11.605;0.044;0.031;0.144;
20200920_185402;0.692;4.992;10.228;-0.045;-0.030;-0.033;
20200920_185402;-0.962;3.282;7.597;0.120;-0.055;-0.074;
20200920_185402;0.584;2.658;7.970;-0.086;-0.049;0.183;
20200920_185402;-0.742;3.864;9.598;-0.120;0.052;0.080;
20200920_185402;-1.209;6.225;6.507;0.181;0.070;0.010;
20200920_185403;0.855;2.411;10.209;0.022;-0.001;-0.210;
20200920_185403;1.142;3.658;12.208;-0.072;-0.111;-0.226;
20200920_185403;-1.662;4.130;7.817;0.069;-0.212;0.080;
20200920_185403;-1.279;4.695;9.967;-0.075;-0.134;0.297;
20200920_185403;-1.420;3.007;10.089;-0.026;-0.019;0.193;
20200920_185403;-0.146;4.532;7.597;0.049;0.096;0.155;
20200920_185403;0.261;3.563;8.181;0.042;0.166;-0.053;
20200920_185403;0.000;5.373;7.781;0.081;-0.001;-0.307;
20200920_185403;1.051;2.823;7.877;0.098;-0.146;-0.018;
20200920_185404;0.362;3.666;10.058;0.037;0.023;0.209;
20200920_185404;0.548;1.884;4.860;0.152;-0.039;-0.124;
20200920_185404;-2.095;4.422;7.458;-0.004;-0.056;0.118;
20200920_185404;0.275;2.516;9.790;-0.084;0.119;0.362;
20200920_185404;2.081;1.987;8.667;0.098;0.180;-0.044;
20200920_185404;0.742;4.252;6.622;0.042;0.169;-0.228;
20200920_185404;-0.464;6.076;6.333;0.079;0.152;-0.115;
20200920_185404;0.029;4.484;7.738;0.008;0.118;-0.289;
20200920_185404;-0.168;5.179;8.772;0.039;0.058;-0.325;
20200920_185404;-0.438;3.747;8.954;-0.005;-0.015;-0.177;
20200920_185405;-0.785;4.796;8.447;0.017;-0.029;-0.088;
20200920_185405;-0.086;4.408;7.444;-0.017;0.001;0.057;
20200920_185405;-0.201;3.476;8.507;0.157;0.087;0.026;
20200920_185405;2.114;8.882;4.855;-0.065;0.125;-0.280;
20200920_185405;-1.559;3.883;8.717;-0.043;-0.056;-0.427;
20200920_185405;-1.255;3.771;3.239;0.146;-0.131;-0.073;
20200920_185405;-0.139;3.110;12.273;-0.022;-0.094;-0.121;
20200920_185405;0.168;5.375;3.740;-0.102;-0.112;-0.215;
20200920_185405;3.847;2.737;10.166;0.021;-0.144;-0.342;
20200920_185406;-0.555;3.778;8.428;-0.062;0.020;-0.244;
20200920_185406;-0.541;3.634;6.833;-0.009;0.024;-0.235;
20200920_185406;-0.455;4.175;6.704;0.175;0.046;-0.129;
20200920_185406;-0.235;1.954;10.769;0.031;0.038;-0.148;
20200920_185406;-1.226;3.998;2.203;0.211;0.055;-0.163;
20200920_185406;-1.046;3.223;7.456;-0.137;-0.029;-0.284;
20200920_185406;-0.029;6.098;8.013;0.261;-0.067;-0.198;
20200920_185406;0.857;2.310;6.804;0.283;-0.031;-0.274;
20200920_185406;-1.420;5.057;5.334;-0.192;-0.159;-0.227;
20200920_185406;0.486;3.412;11.554;0.072;-0.128;-0.254;
20200920_185407;-0.773;6.529;0.642;0.324;-0.128;-0.303;
20200920_185407;-2.009;1.037;10.022;0.093;-0.203;-0.077;
20200920_185407;0.433;3.953;12.050;0.235;-0.178;-0.095;
20200920_185407;0.239;1.501;10.211;-0.111;-0.242;-0.125;
20200920_185407;-1.812;3.982;10.266;0.206;-0.207;0.045;
20200920_185407;-1.944;4.154;8.892;-0.215;-0.114;0.348;
20200920_185407;-1.075;1.413;10.652;-0.181;-0.183;-0.067;
20200920_185407;-2.490;4.211;7.561;0.087;-0.051;0.049;
20200920_185407;0.994;2.009;9.902;-0.065;-0.055;0.104;
20200920_185408;-0.225;4.709;9.646;-0.153;0.039;-0.013;
20200920_185408;0.967;3.589;12.366;-0.124;0.020;-0.165;
20200920_185408;-0.960;3.836;8.806;0.013;-0.048;-0.142;
20200920_185408;0.347;2.533;7.951;-0.083;-0.096;-0.085;
20200920_185408;0.062;3.381;6.716;-0.037;-0.066;0.090;
20200920_185408;1.080;5.073;7.616;0.046;-0.097;0.257;
20200920_185408;0.994;6.129;7.269;0.130;0.024;0.107;
20200920_185408;-1.286;2.686;7.834;-0.022;0.048;-0.167;
20200920_185408;0.278;4.714;8.363;-0.050;0.062;-0.259;
20200920_185408;1.209;4.539;3.572;0.086;-0.079;-0.274;
20200920_185409;-1.188;3.859;9.859;0.134;-0.094;-0.058;
20200920_185409;-1.865;3.048;9.146;0.057;-0.127;0.003;
20200920_185409;0.050;5.763;9.455;0.008;-0.096;0.194;
20200920_185409;1.913;4.468;11.360;0.033;-0.004;0.117;
20200920_185409;-0.484;3.718;9.708;-0.159;0.034;-0.055;
20200920_185409;-0.857;3.855;8.710;-0.221;0.036;-0.067;
20200920_185409;-1.183;5.373;8.729;-0.161;0.026;-0.032;
20200920_185409;-1.827;0.982;9.675;-0.044;0.033;0.167;
20200920_185409;-1.683;4.329;7.281;-0.149;-0.061;-0.128;
20200920_185410;0.048;2.260;8.243;0.036;-0.023;0.096;
20200920_185410;0.357;4.262;8.679;0.056;-0.172;-0.240;
20200920_185410;-0.022;4.848;7.068;0.003;-0.139;0.278;
20200920_185410;-0.168;3.539;12.802;-0.011;-0.033;0.307;
20200920_185410;0.955;2.339;9.151;-0.037;0.066;0.099;
20200920_185410;-0.373;4.982;6.395;-0.208;0.137;0.125;
20200920_185410;0.515;2.732;11.234;0.001;0.222;0.018;
20200920_185410;0.474;3.982;7.755;0.046;0.314;0.100;
20200920_185410;3.136;6.634;5.171;0.018;0.261;-1.011;
20200920_185410;-5.545;7.582;-6.431;0.119;-0.046;-0.326;
20200920_185411;-3.673;0.352;6.057;0.733;-0.162;-0.509;
20200920_185411;0.069;10.429;23.351;-0.732;-0.342;0.656;
20200920_185411;-8.614;14.724;27.988;-0.656;0.685;-0.555;
20200920_185411;-4.386;30.390;29.750;1.169;0.016;0.215;
20200920_185411;2.679;45.396;0.730;2.374;-0.276;0.016;
20200920_185411;1.997;0.151;-1.815;0.760;-0.128;-0.101;
20200920_185411;1.906;-8.124;14.315;0.361;-0.136;0.135;
20200920_185411;-1.025;7.072;17.516;0.673;0.042;0.395;
20200920_185411;-1.851;0.455;0.838;0.230;0.172;0.361;
20200920_185411;1.566;0.371;20.035;-0.358;0.196;0.135;
20200920_185412;0.725;7.365;-5.533;0.104;0.267;-0.176;
20200920_185412;-1.774;9.431;3.381;-0.339;0.144;-0.318;
20200920_185412;-0.484;12.464;4.195;0.597;0.024;-0.344;
20200920_185412;2.085;0.979;3.524;0.104;-0.073;-0.212;
20200920_185412;-0.898;7.819;7.542;0.291;-0.128;-0.210;
20200920_185412;0.175;4.185;13.147;0.049;-0.101;-0.065;
20200920_185412;-0.565;8.705;8.102;-0.177;-0.052;0.208;
20200920_185412;-0.180;1.788;10.254;-0.010;0.127;0.130;
20200920_185412;-1.475;0.452;9.100;-0.333;0.242;0.025;
20200920_185413;5.298;1.425;11.495;0.024;0.252;-0.525;
20200920_185413;-2.303;3.457;0.965;0.152;0.120;-0.726;
20200920_185413;-0.467;4.987;0.620;0.202;-0.172;-0.284;
20200920_185413;-0.888;6.507;12.821;0.080;-0.100;0.046;
20200920_185413;-3.278;7.173;6.567;-0.274;-0.126;0.217;
20200920_185413;0.955;5.966;-10.879;0.410;-0.142;0.007;
20200920_185413;-2.277;10.408;-3.000;0.428;-0.065;-0.160;
20200920_185413;-0.656;9.002;2.014;0.315;-0.079;-0.042;
20200920_185413;0.522;7.128;7.740;-0.362;-0.126;-0.069;
20200920_185413;0.587;6.041;8.859;-0.469;0.017;-0.143;
20200920_185414;0.120;5.677;12.076;0.117;-0.106;-0.643;
20200920_185414;3.057;-3.223;24.684;0.283;-0.349;-0.253;
20200920_185414;-0.582;-1.039;17.782;-0.305;-0.205;0.210;
20200920_185414;0.781;-4.243;45.368;-1.386;-0.232;0.308;
20200920_185414;-1.164;6.062;1.753;-0.317;0.149;-0.207;
20200920_185414;-0.053;-0.213;6.086;-0.454;-0.182;-0.262;
20200920_185414;-0.378;5.205;7.082;-0.157;-0.008;-0.076;
20200920_185414;-0.481;2.914;11.885;-0.002;0.004;-0.234;
20200920_185414;-3.158;7.159;5.804;0.432;-0.099;-0.073;
20200920_185415;0.630;-0.280;17.552;-0.593;-0.129;0.129;
20200920_185415;0.383;-0.421;15.490;-0.435;-0.083;-0.001;
20200920_185415;2.049;3.029;11.866;0.079;-0.057;-0.425;
20200920_185415;-1.935;6.792;3.292;0.018;-0.113;0.027;
20200920_185415;0.342;7.544;19.149;-0.134;-0.056;0.630;
20200920_185415;-4.173;-15.196;21.919;-2.216;0.061;0.843;
20200920_185415;2.466;-2.114;2.337;0.353;0.654;0.113;
20200920_185415;4.329;29.667;-18.988;-0.333;0.484;-0.939;
20200920_185415;-2.574;6.378;1.604;-0.096;0.437;-0.718;
20200920_185415;0.204;-32.485;1.312;-2.158;-0.517;0.332;
20200920_185416;-3.663;14.593;10.408;0.251;-0.170;-0.990;
20200920_185416;-2.272;4.015;5.260;0.094;-0.602;-0.112;
20200920_185416;-2.301;2.772;10.355;-0.116;-0.496;0.805;
20200920_185416;-0.934;5.461;8.246;-0.180;-0.306;0.773;
20200920_185416;2.495;6.002;4.997;0.066;-0.049;0.390;
20200920_185416;0.306;3.443;8.507;0.010;0.092;0.031;
20200920_185416;-0.802;4.183;9.907;0.069;0.078;0.137;
20200920_185416;1.743;8.684;1.104;0.551;0.155;0.154;
20200920_185416;0.970;5.883;5.490;0.031;0.176;0.065;
20200920_185416;-1.425;6.031;6.917;-0.043;0.132;0.025;
20200920_185417;-1.389;2.160;10.523;0.005;0.040;0.143;
20200920_185417;2.562;5.389;6.993;-0.028;0.045;0.030;
20200920_185417;-0.057;3.685;7.072;0.080;-0.013;-0.206;
20200920_185417;0.740;2.909;6.639;0.027;-0.019;-0.007;
20200920_185417;1.379;6.548;5.854;0.054;-0.012;-0.030;
20200920_185417;-1.111;2.545;7.357;0.015;-0.012;-0.112;
20200920_185417;-0.524;2.653;16.992;-0.129;-0.049;0.420;
20200920_185417;-0.737;3.326;4.317;0.060;0.104;0.313;
20200920_185417;-0.989;0.045;11.404;0.049;0.229;0.176;
20200920_185418;-1.082;1.568;12.356;-0.117;0.206;-0.101;
20200920_185418;0.460;4.568;10.491;0.088;0.125;-0.372;
20200920_185418;-0.828;3.335;10.841;0.023;-0.006;-0.377;
20200920_185418;-0.211;3.852;7.946;-0.043;-0.124;-0.006;
20200920_185418;-0.986;5.796;6.694;-0.254;-0.094;0.029;
20200920_185418;-0.565;4.197;10.772;0.001;-0.000;-0.027;
20200920_185418;-0.089;5.576;8.423;0.001;-0.036;0.186;
20200920_185418;-0.455;5.760;6.857;-0.074;0.015;0.232;
20200920_185418;0.177;3.998;8.131;0.024;0.132;0.062;
20200920_185418;0.338;4.503;6.800;0.066;0.160;-0.160;
20200920_185419;0.065;4.853;10.525;-0.019;0.108;-0.316;
20200920_185419;-0.821;2.840;10.266;0.014;-0.031;-0.298;
20200920_185419;-2.184;2.749;10.365;-0.087;-0.089;-0.159;
20200920_185419;-0.761;7.075;5.420;0.165;-0.088;0.018;
20200920_185419;-0.883;5.320;6.694;0.095;-0.034;0.030;
20200920_185419;-0.304;6.323;8.083;-0.099;-0.066;0.046;
20200920_185419;-0.189;3.385;7.511;0.095;-0.034;-0.143;
20200920_185419;-0.783;3.824;9.036;-0.017;-0.114;0.007;
20200920_185419;-1.623;1.966;8.698;-0.188;-0.011;0.794;
20200920_185420;-0.192;4.951;11.114;-0.125;0.073;-0.013;
20200920_185420;1.341;3.175;10.104;0.167;0.008;-0.204;
20200920_185420;-0.247;1.678;10.496;-0.095;-0.006;-0.078;
20200920_185420;-1.456;4.293;9.438;-0.058;-0.068;0.101;
20200920_185420;0.804;4.525;7.757;-0.130;-0.101;-0.328;
20200920_185420;1.003;3.223;10.408;-0.004;-0.028;-0.110;
20200920_185420;-2.071;1.609;11.411;0.047;0.021;0.155;
20200920_185420;1.178;3.630;5.511;0.047;-0.134;0.238;
20200920_185420;-0.824;3.177;11.468;0.145;0.096;0.252;
20200920_185421;0.158;5.629;9.792;0.079;-0.009;0.068;
20200920_185421;-0.702;3.527;8.073;0.020;0.038;0.114;
20200920_185421;0.654;4.621;6.534;0.020;0.012;0.043;
20200920_185421;0.005;3.043;9.009;0.097;0.029;-0.199;
20200920_185421;-0.352;4.544;5.763;0.111;-0.060;-0.029;
20200920_185421;-1.176;2.832;9.543;-0.000;0.087;0.194;
20200920_185421;0.249;4.942;5.950;-0.012;0.064;0.050;
20200920_185421;-1.674;3.203;10.604;-0.021;0.071;-0.057;
20200920_185421;0.237;3.680;10.230;0.080;0.205;0.161;
20200920_185422;0.385;4.070;11.727;-0.026;0.219;-0.037;
20200920_185422;-0.630;5.174;5.303;0.089;0.197;-0.180;
20200920_185422;-0.654;6.144;9.254;0.027;0.109;-0.039;
20200920_185422;0.833;4.243;9.596;-0.158;0.027;-0.428;
20200920_185422;-1.046;5.559;7.537;0.013;-0.055;-0.371;
20200920_185422;1.003;0.582;9.586;0.111;-0.109;-0.200;
20200920_185422;0.412;5.092;8.124;-0.028;-0.124;-0.289;
20200920_185422;0.223;3.266;10.726;-0.031;-0.141;-0.205;
20200920_185422;-2.093;1.877;7.666;0.075;-0.214;0.248;
20200920_185422;-1.652;5.871;10.250;-0.003;-0.171;0.287;
20200920_185423;-0.273;4.132;11.337;0.052;-0.061;0.260;
20200920_185423;-1.173;1.908;6.031;0.067;-0.020;0.218;
20200920_185423;0.148;1.887;8.021;0.039;0.065;0.154;
20200920_185423;-1.571;3.373;10.523;-0.097;0.047;0.054;
20200920_185423;-0.673;5.681;9.383;-0.140;0.081;0.123;
20200920_185423;1.128;3.440;6.132;-0.032;-0.002;-0.030;
20200920_185423;-0.208;4.865;7.985;0.027;0.064;0.021;
20200920_185423;0.472;3.390;9.603;-0.009;0.055;-0.031;
20200920_185423;0.634;2.942;9.835;-0.044;0.055;-0.122;
20200920_185423;-1.161;2.442;9.888;-0.062;0.071;0.116;
20200920_185424;1.214;3.213;6.242;-0.118;0.161;0.383;
20200920_185424;1.508;4.132;3.524;-0.053;0.157;-0.249;
20200920_185424;2.471;4.235;11.243;-0.016;0.163;-0.357;
20200920_185424;-0.936;8.442;6.254;-0.003;0.068;-0.537;
20200920_185424;-0.572;4.039;6.280;0.017;-0.004;-0.289;
20200920_185424;-1.049;5.037;6.812;0.086;-0.125;-0.378;
20200920_185424;1.657;1.662;9.792;0.056;-0.204;-0.149;
20200920_185424;0.072;5.861;6.369;0.088;-0.205;-0.133;
20200920_185424;-0.742;4.264;10.657;0.061;-0.199;0.220;
20200920_185424;-0.215;4.829;9.991;0.098;-0.148;0.395;
20200920_185425;0.225;3.543;10.178;0.125;0.098;0.480;
20200920_185425;-0.050;4.683;8.222;-0.168;0.169;0.020;
20200920_185425;-0.199;6.105;-0.931;0.262;0.255;-0.039;
20200920_185425;-1.688;2.504;11.317;-0.148;0.054;-0.215;
20200920_185425;-0.117;2.634;9.033;0.132;0.024;-0.212;
20200920_185425;-0.941;1.341;11.289;-0.112;-0.075;-0.276;
20200920_185425;0.105;-1.393;20.279;-0.230;-0.163;0.046;
20200920_185425;-0.965;4.791;8.638;0.017;0.001;-0.010;
20200920_185425;0.601;2.835;6.886;0.100;0.006;-0.204;
20200920_185426;0.900;3.584;9.194;0.063;0.014;-0.055;
20200920_185426;-1.547;2.693;10.348;-0.130;0.050;-0.171;
20200920_185426;-1.697;1.611;18.076;-0.002;0.064;-0.165;
20200920_185426;-0.390;4.875;9.737;-0.074;0.050;-0.056;
20200920_185426;0.970;2.401;11.542;0.201;-0.044;-0.388;
20200920_185426;-1.341;5.212;9.744;0.095;-0.068;-0.451;
20200920_185426;-0.304;3.735;8.882;0.116;-0.208;-0.256;
20200920_185426;0.371;2.665;12.967;-0.012;-0.197;-0.129;
20200920_185426;0.096;4.441;7.202;0.102;-0.196;-0.195;
20200920_185427;0.060;4.276;8.794;0.111;-0.079;-0.025;
20200920_185427;0.132;3.855;9.759;0.016;-0.117;-0.011;
20200920_185427;-0.565;3.749;9.002;0.004;-0.032;-0.249;
20200920_185427;-1.269;0.591;7.695;0.165;0.058;0.030;
20200920_185427;1.267;6.560;7.922;0.048;-0.091;-0.302;
20200920_185427;-1.669;4.286;8.873;0.034;-0.120;-0.129;
20200920_185427;-0.646;4.724;5.873;0.113;-0.050;0.181;
20200920_185427;-0.041;7.585;10.027;0.220;-0.003;-0.027;
20200920_185427;2.902;2.277;8.442;0.043;0.018;-0.246;
20200920_185428;1.853;3.297;8.171;-0.067;0.004;-0.541;
20200920_185428;-0.352;2.291;15.739;0.134;-0.078;-0.493;
20200920_185428;-1.777;5.605;3.682;0.149;-0.042;0.238;
20200920_185428;2.006;3.268;10.791;0.086;0.058;-0.333;
20200920_185428;-0.759;5.909;7.159;0.073;-0.077;-0.568;
20200920_185428;-2.655;2.025;10.918;0.005;-0.151;-0.047;
20200920_185428;-0.709;0.816;9.553;-0.004;-0.180;0.053;
20200920_185428;0.543;2.998;7.209;0.006;-0.179;-0.150;
20200920_185428;0.548;3.541;10.343;0.040;-0.155;-0.390;
20200920_185428;-1.518;5.856;9.117;-0.010;-0.160;-0.141;
20200920_185429;-0.146;4.776;8.236;0.026;-0.225;-0.012;
20200920_185429;1.329;5.636;12.452;-0.060;-0.137;-0.075;
20200920_185429;-1.662;3.876;10.795;0.017;-0.132;-0.048;
20200920_185429;-0.251;0.436;4.535;-0.036;0.045;-0.022;
20200920_185429;1.159;0.792;12.443;-0.172;-0.073;0.005;
20200920_185429;-1.267;4.523;8.842;0.036;-0.012;0.081;
20200920_185429;-0.239;3.666;11.404;-0.125;-0.019;-0.280;
20200920_185429;-0.778;1.398;12.404;-0.170;0.027;-0.186;
20200920_185429;0.735;4.286;6.950;-0.019;0.018;-0.248;
20200920_185430;0.821;4.800;8.119;0.100;0.001;-0.261;
20200920_185430;0.472;3.395;3.680;-0.071;0.050;-0.341;
20200920_185430;0.089;4.053;10.941;0.086;-0.012;-0.423;
20200920_185430;1.772;4.820;8.533;-0.076;0.049;-0.456;
20200920_185430;-1.951;1.101;14.856;0.236;-0.193;-0.553;
20200920_185430;-1.501;4.527;12.740;0.254;-0.261;-0.502;
20200920_185430;-2.315;2.866;10.420;-0.012;-0.420;-0.227;
20200920_185430;-1.587;2.926;3.285;0.135;-0.434;0.373;
20200920_185430;2.557;9.991;-0.819;0.386;-0.300;0.720;
20200920_185431;-0.455;5.593;8.772;0.120;-0.165;0.129;
20200920_185431;-1.338;4.530;9.426;-0.033;-0.045;0.312;
20200920_185431;3.742;5.729;1.346;-0.174;-0.051;-0.156;
20200920_185431;0.517;3.651;8.887;-0.025;-0.059;0.358;
20200920_185431;1.508;6.519;5.459;0.080;0.102;0.196;
20200920_185431;-0.666;1.954;9.541;-0.068;0.088;-0.127;
20200920_185431;0.632;4.884;8.212;0.243;0.101;0.083;
20200920_185431;1.405;5.155;6.304;0.157;-0.039;0.042;
20200920_185431;0.381;2.756;10.147;-0.052;-0.091;0.223;
20200920_185431;0.101;4.113;9.246;0.029;0.131;0.194;
20200920_185432;-0.218;3.699;8.770;-0.030;-0.027;-0.335;
20200920_185432;0.323;6.076;8.897;-0.045;0.070;-0.080;
20200920_185432;-0.108;4.027;10.681;-0.029;0.095;-0.229;
20200920_185432;-0.251;3.862;7.748;0.011;0.039;-0.147;
20200920_185432;2.787;3.692;5.715;0.148;0.232;0.079;
20200920_185432;-3.294;0.524;13.759;0.254;0.013;-0.669;
20200920_185432;0.484;4.966;8.485;-0.015;-0.111;-0.441;
20200920_185432;-3.309;2.962;11.569;-0.033;-0.161;0.545;
20200920_185432;-0.812;2.382;12.368;-0.046;-0.189;0.034;
20200920_185433;-0.335;4.480;6.800;-0.095;-0.164;0.152;
20200920_185433;3.369;0.527;5.567;-0.050;-0.050;0.038;
20200920_185433;2.883;7.082;4.975;-0.095;0.001;-0.308;
20200920_185433;0.266;4.343;8.363;0.020;0.089;-0.302;
20200920_185433;-0.232;3.354;8.284;0.037;-0.076;-0.083;
20200920_185433;-0.263;5.088;6.184;-0.018;-0.101;0.097;
20200920_185433;-0.936;3.852;7.111;0.032;0.031;0.241;
20200920_185433;-0.230;4.549;8.758;-0.033;-0.008;0.021;
20200920_185433;-1.932;1.381;7.767;-0.064;-0.160;-0.129;
20200920_185433;-0.967;2.868;9.658;0.010;-0.211;-0.027;
20200920_185434;-0.642;5.052;9.792;-0.039;-0.306;0.193;
20200920_185434;-1.063;1.341;15.672;0.008;-0.174;0.406;
20200920_185434;0.486;3.666;12.720;-0.173;-0.046;0.214;
20200920_185434;-0.019;3.249;9.426;-0.072;-0.022;0.127;
20200920_185434;-0.850;2.737;11.104;0.096;0.086;0.291;
20200920_185434;-0.034;5.674;8.509;0.082;0.179;0.530;
20200920_185434;-1.015;4.700;7.803;0.166;0.327;0.081;
20200920_185434;-0.010;7.025;8.820;0.037;0.286;-0.041;
20200920_185434;-2.200;6.050;7.202;-0.142;0.167;-0.231;
20200920_185435;1.489;1.389;10.314;-0.226;-0.063;-0.265;
20200920_185435;-0.692;5.665;8.241;0.093;-0.063;-0.057;
20200920_185435;2.169;2.734;7.891;-0.040;-0.059;0.217;
20200920_185435;1.551;1.188;9.845;-0.100;-0.077;-0.306;
20200920_185435;1.760;4.365;10.046;0.001;-0.061;-0.303;
20200920_185435;-1.820;2.605;9.383;-0.029;0.041;0.446;
20200920_185435;2.231;3.168;4.345;0.021;-0.018;0.027;
20200920_185435;1.113;4.489;5.856;-0.118;0.106;-0.058;
20200920_185435;2.131;5.073;13.091;-0.141;-0.023;-0.582;
20200920_185435;0.055;3.053;7.611;0.121;-0.249;-0.154;
20200920_185436;1.250;4.032;2.071;0.343;-0.224;0.254;
20200920_185436;-0.029;1.587;7.762;-0.128;-0.145;0.347;
20200920_185436;1.781;5.820;7.008;-0.125;-0.138;0.179;
20200920_185436;0.953;4.398;6.929;0.066;0.094;0.108;
20200920_185436;1.073;2.761;14.897;-0.097;0.146;-0.157;
20200920_185436;-0.515;2.377;8.511;-0.120;0.043;0.132;
20200920_185436;0.000;8.724;6.189;0.069;0.031;0.004;
20200920_185436;1.302;4.417;13.862;-0.116;0.141;0.037;
20200920_185436;-0.634;1.154;9.900;0.223;0.197;-0.242;
20200920_185437;-0.441;2.263;9.301;0.008;-0.149;-0.426;
20200920_185437;-1.003;4.592;7.757;0.208;-0.141;-0.172;
20200920_185437;-0.038;3.852;6.761;0.124;-0.330;-0.013;
20200920_185437;-0.838;3.582;16.858;-0.035;-0.195;0.318;
20200920_185437;1.204;4.523;5.030;0.081;-0.163;0.386;
20200920_185437;-0.017;-1.355;8.480;0.049;0.073;0.512;
20200920_185437;1.116;2.832;10.470;0.078;0.144;0.332;
20200920_185437;0.836;2.064;11.293;0.028;0.304;0.131;
20200920_185437;-1.056;5.909;14.128;-0.120;0.275;-0.267;
20200920_185437;0.091;2.784;7.855;-0.091;0.168;-0.302;
20200920_185438;1.681;2.682;8.155;0.001;0.023;-0.426;
20200920_185438;0.345;4.161;1.913;0.176;-0.002;0.053;
20200920_185438;-0.627;6.512;4.791;0.269;-0.034;-0.262;
20200920_185438;0.402;5.418;7.132;-0.131;-0.084;0.021;
20200920_185438;-1.283;2.440;10.135;-0.149;-0.032;-0.210;
20200920_185438;1.496;3.972;6.333;-0.056;-0.058;0.059;
20200920_185438;-1.891;4.999;8.667;0.010;0.012;0.196;
20200920_185438;-2.974;2.818;1.360;-0.003;0.059;-0.095;
20200920_185438;0.417;1.171;11.313;0.001;0.047;0.074;
20200920_185438;-0.299;9.629;9.898;0.257;0.192;-0.027;
20200920_185439;0.745;4.867;9.627;0.117;-0.057;-0.468;
20200920_185439;-3.721;7.245;9.364;0.043;-0.208;-0.227;
20200920_185439;-1.458;-2.004;26.102;-0.066;-0.431;0.163;
20200920_185439;-1.207;1.812;9.589;-0.132;-0.157;0.453;
20200920_185439;-1.604;11.806;10.259;0.218;-0.092;0.385;
20200920_185439;1.247;4.013;6.136;-0.051;0.015;0.293;
20200920_185439;-1.360;4.714;8.116;0.197;0.069;0.150;
20200920_185439;-0.819;4.319;7.463;0.069;0.140;0.188;
20200920_185439;-0.433;5.167;8.260;0.022;0.080;0.037;
20200920_185440;0.235;7.298;4.925;0.039;0.107;0.012;
20200920_185440;-1.966;3.603;11.480;-0.159;0.094;0.045;
20200920_185440;-0.290;-0.637;-3.244;0.350;0.020;0.105;
20200920_185440;-2.239;6.266;9.153;0.163;0.006;-0.423;
20200920_185440;-1.207;4.379;11.562;-0.319;-0.153;0.393;
20200920_185440;2.732;6.953;6.646;-0.100;-0.066;-0.037;
20200920_185440;1.085;5.698;7.738;0.081;0.065;-0.139;
20200920_185440;-0.421;0.611;7.266;0.001;0.017;-0.128;
20200920_185440;-1.393;6.069;5.358;0.046;-0.028;0.072;
20200920_185440;-0.486;5.102;7.853;0.050;-0.024;0.137;
20200920_185441;-1.578;4.202;8.938;-0.059;0.172;0.144;
20200920_185441;-1.037;3.505;8.468;0.026;0.095;-0.090;
20200920_185441;0.634;6.129;9.438;0.117;-0.013;-0.197;
20200920_185441;-2.581;6.397;5.576;0.220;0.013;-0.067;
20200920_185441;1.396;4.132;3.496;-0.036;-0.034;0.116;
20200920_185441;-1.501;5.409;10.635;0.178;0.072;0.043;
20200920_185441;0.690;5.387;8.679;-0.017;0.034;-0.326;
20200920_185441;-2.591;3.543;12.428;0.197;-0.018;-0.079;
20200920_185441;-1.441;2.555;13.898;0.138;0.017;-0.003;
20200920_185442;0.613;6.273;12.330;-0.273;-0.079;0.014;
20200920_185442;0.237;4.750;11.152;-0.046;0.005;0.106;
20200920_185442;-0.929;1.721;9.847;-0.229;-0.079;0.300;
20200920_185442;-0.563;2.761;7.831;0.043;0.072;-0.115;
20200920_185442;-0.153;3.582;6.855;0.053;-0.146;-0.275;
20200920_185442;-1.111;6.615;10.010;-0.036;-0.039;0.219;
20200920_185442;0.309;3.752;9.618;0.026;0.008;0.178;
20200920_185442;0.077;3.354;8.689;0.028;0.039;-0.284;
20200920_185442;0.673;7.010;6.337;-0.120;-0.061;0.038;
20200920_185443;-0.213;0.421;10.125;-0.118;0.094;0.317;
20200920_185443;1.765;2.849;2.930;0.032;0.276;-0.428;
20200920_185443;0.101;3.965;9.029;-0.047;0.130;-0.487;
20200920_185443;-2.574;3.836;7.901;0.053;-0.122;-0.503;
20200920_185443;-0.457;4.980;8.928;0.022;-0.220;-0.193;
20200920_185443;-0.634;5.100;4.003;0.156;-0.323;0.092;
20200920_185443;-0.656;4.585;1.516;0.222;-0.189;0.304;
20200920_185443;0.730;6.699;6.776;0.118;-0.113;0.151;
20200920_185443;-1.027;3.833;10.563;-0.088;0.114;0.157;
20200920_185444;-1.130;5.631;14.727;-0.074;-0.099;-0.000;
20200920_185444;-0.251;3.472;10.475;0.003;0.070;0.236;
20200920_185444;0.414;5.653;7.578;0.028;0.112;0.040;
20200920_185444;-1.425;1.262;8.851;-0.177;0.178;0.012;
20200920_185444;0.153;3.438;7.075;0.046;0.012;-0.334;
20200920_185444;-0.323;5.737;7.087;0.042;-0.000;-0.039;
20200920_185444;0.668;6.697;8.219;-0.004;-0.122;-0.045;
20200920_185444;0.170;3.685;9.029;-0.023;-0.080;-0.050;
20200920_185444;0.955;3.615;9.661;-0.141;-0.006;-0.065;
20200920_185444;-0.788;1.264;7.796;0.013;0.106;0.051;
20200920_185445;2.777;3.711;9.536;0.021;-0.014;-0.110;
20200920_185445;0.067;2.837;6.124;-0.068;0.159;-0.203;
20200920_185445;0.302;4.120;9.512;0.150;0.006;-0.581;
20200920_185445;-0.563;6.448;8.878;-0.031;-0.090;-0.035;
20200920_185445;-1.987;1.798;7.872;-0.043;-0.155;-0.027;
20200920_185445;-1.307;5.844;12.991;0.096;-0.040;-0.076;
20200920_185445;1.592;4.518;1.176;0.115;-0.151;-0.114;
20200920_185445;3.136;0.718;8.772;-0.131;-0.197;-0.227;
20200920_185445;-0.239;6.065;7.096;0.122;-0.149;-0.381;
20200920_185446;-2.004;2.983;7.491;0.098;-0.110;0.057;
20200920_185446;-0.699;3.912;12.368;-0.045;-0.171;0.309;
20200920_185446;-0.069;4.925;8.950;0.103;-0.055;0.373;
20200920_185446;0.721;6.242;5.227;0.052;0.007;0.045;
20200920_185446;-1.290;2.986;10.104;-0.066;-0.035;0.132;
20200920_185446;-0.982;2.093;8.657;0.006;-0.011;0.017;
20200920_185446;0.814;4.025;11.521;-0.061;-0.017;0.079;
20200920_185446;-0.184;2.571;10.992;-0.021;-0.010;-0.090;
20200920_185446;-0.472;5.473;5.629;-0.078;-0.128;-0.132;
20200920_185446;0.649;4.911;8.279;-0.031;-0.082;-0.148;
20200920_185447;0.101;1.851;9.110;-0.105;-0.099;0.015;
20200920_185447;0.036;4.446;10.731;0.053;-0.194;0.230;
20200920_185447;-1.848;4.599;4.080;-0.038;-0.128;0.535;
20200920_185447;-2.897;5.064;11.356;-0.029;0.098;0.606;
20200920_185447;-0.323;5.476;4.130;0.115;0.108;0.480;
20200920_185447;-0.232;4.518;11.930;-0.002;0.395;0.446;
20200920_185447;1.341;8.344;3.079;0.252;0.343;-0.198;
20200920_185447;1.741;2.897;6.965;0.095;0.250;-0.569;
20200920_185447;2.322;3.675;11.238;-0.048;-0.039;-0.633;
20200920_185448;-1.032;7.386;8.126;-0.108;-0.130;-0.321;
20200920_185448;0.259;4.389;6.950;0.006;-0.177;-0.053;
20200920_185448;-1.410;2.856;5.394;0.125;-0.079;0.287;
20200920_185448;-1.259;4.334;10.621;0.086;0.016;0.438;
20200920_185448;1.872;3.560;10.903;-0.079;0.170;0.131;
20200920_185448;-0.486;5.473;9.316;-0.143;0.027;-0.407;
20200920_185448;0.457;3.287;9.833;0.043;-0.060;-0.455;
20200920_185448;-4.379;2.500;9.007;0.020;-0.207;0.084;
20200920_185448;-0.668;5.239;3.369;0.178;-0.038;0.421;
20200920_185448;4.405;4.808;5.423;-0.258;-0.069;-0.208;
20200920_185449;-0.639;5.770;7.992;-0.005;0.125;0.076;
20200920_185449;1.255;2.382;11.439;-0.051;0.106;-0.518;
20200920_185449;1.709;0.824;9.620;-0.055;0.057;-0.174;
20200920_185449;-1.073;1.666;9.936;-0.006;0.072;-0.216;
20200920_185449;1.812;2.610;4.575;0.094;-0.083;-0.091;
20200920_185449;1.137;7.389;3.613;0.054;-0.178;-0.174;
20200920_185449;-3.663;1.915;12.675;-0.076;-0.219;-0.274;
20200920_185449;-2.698;1.846;12.965;-0.022;-0.390;0.069;
20200920_185449;1.911;5.614;3.239;0.092;-0.280;0.563;
20200920_185450;0.043;6.620;5.995;0.145;-0.175;0.214;
20200920_185450;-0.510;8.193;8.126;0.066;-0.143;0.454;
20200920_185450;1.403;3.215;6.472;-0.047;0.049;-0.030;
20200920_185450;-0.156;4.235;1.709;0.011;-0.002;0.431;
20200920_185450;-0.888;6.732;6.749;0.094;0.130;0.513;
20200920_185450;-0.213;-0.522;9.170;-0.002;0.210;0.058;
20200920_185450;-1.678;3.697;13.623;-0.055;0.249;0.048;
20200920_185450;-1.109;3.876;-3.086;0.330;0.199;0.161;
20200920_185450;2.461;1.662;7.606;-0.053;0.233;0.294;
20200920_185450;-2.466;1.369;7.151;-0.031;0.149;0.280;
20200920_185451;-1.937;8.121;11.193;0.061;-0.025;-0.308;
20200920_185451;0.587;1.580;11.847;-0.161;-0.047;-0.244;
20200920_185451;1.401;5.078;7.728;0.095;0.103;0.080;
20200920_185451;0.685;5.253;10.053;0.082;0.018;-0.113;
20200920_185451;1.779;4.937;4.515;0.055;0.144;0.104;
20200920_185451;-0.407;5.480;6.139;0.114;0.176;0.081;
20200920_185451;0.441;5.088;11.198;-0.072;-0.048;-0.647;
20200920_185451;0.737;3.165;9.091;-0.105;-0.219;-0.427;
20200920_185451;-3.627;2.643;5.997;0.205;-0.324;0.092;
20200920_185452;-1.719;3.977;6.955;0.150;-0.255;0.563;
20200920_185452;-0.735;3.096;7.815;0.094;-0.153;0.700;
20200920_185452;-0.860;2.509;5.042;0.062;-0.125;0.521;
20200920_185452;4.326;6.986;0.898;0.305;0.120;0.528;
20200920_185452;1.195;2.811;9.407;-0.150;0.058;0.165;
20200920_185452;-3.180;2.626;7.424;0.072;0.314;0.601;
20200920_185452;0.745;1.456;14.375;0.151;0.412;-0.149;
20200920_185452;1.137;4.077;10.056;-0.069;0.343;-0.742;
20200920_185452;-2.885;6.189;6.601;0.087;0.147;-0.682;
20200920_185453;-3.632;2.734;9.598;0.098;-0.123;-0.142;
20200920_185453;-1.319;3.752;9.462;-0.046;-0.207;0.036;
20200920_185453;-0.606;2.739;10.444;-0.105;-0.010;0.497;
20200920_185453;-0.062;4.211;6.412;0.076;-0.027;-0.013;
20200920_185453;-0.127;4.140;8.279;0.079;-0.075;-0.106;
20200920_185453;-0.239;2.526;9.799;-0.037;-0.041;-0.023;
20200920_185453;-1.128;4.274;8.095;-0.028;-0.036;0.066;
20200920_185453;-0.242;4.882;4.671;-0.048;-0.033;0.163;
20200920_185453;-0.024;3.010;9.012;-0.039;0.042;0.219;
20200920_185453;2.258;2.093;9.002;-0.025;0.108;-0.120;
20200920_185454;-1.118;3.675;7.750;0.081;0.129;-0.028;
20200920_185454;-1.128;3.122;4.664;0.126;0.098;-0.016;
20200920_185454;0.163;2.318;7.314;-0.087;0.041;-0.186;
20200920_185454;-0.347;5.054;10.381;-0.027;0.026;-0.249;
20200920_185454;-0.457;3.800;7.913;-0.011;-0.057;-0.142;
20200920_185454;0.412;4.372;14.061;-0.010;-0.015;-0.192;
20200920_185454;0.165;4.506;8.533;-0.102;-0.114;-0.504;
20200920_185454;-9.862;6.278;7.712;-0.103;-0.301;-0.193;
20200920_185454;2.672;7.645;16.798;-2.411;-1.384;-0.337;
20200920_185454;3.469;-3.886;12.306;-1.678;-0.111;-0.029;
20200920_185455;-6.699;-0.467;13.776;0.116;-0.078;0.790;
20200920_185455;-1.087;3.646;5.890;0.219;0.012;-0.041;
20200920_185455;-4.669;3.996;24.569;-0.258;-0.252;0.053;
20200920_185455;2.114;6.632;6.337;0.269;-0.050;0.568;
20200920_185455;-4.008;4.001;14.791;0.210;0.074;0.462;
20200920_185455;0.505;1.954;7.523;-0.077;0.186;-0.102;
20200920_185455;3.752;0.048;0.680;-0.172;0.146;-0.029;
20200920_185455;0.646;5.550;5.483;0.169;0.242;0.047;
20200920_185455;2.600;5.100;6.196;0.071;-0.012;-0.598;
20200920_185456;-1.733;0.716;6.730;0.206;0.094;-0.216;
20200920_185456;-1.094;5.653;2.045;0.044;-0.031;-0.221;
20200920_185456;1.504;5.016;18.565;0.316;-0.020;-0.180;
20200920_185456;-2.231;2.796;0.182;-0.147;0.023;0.225;
20200920_185456;0.402;4.767;-1.077;-0.110;0.104;0.096;
20200920_185456;-2.468;6.500;7.319;-0.023;0.152;-0.148;
20200920_185456;-2.605;8.231;5.854;-0.042;-0.065;-0.586;
20200920_185456;-2.265;6.062;10.898;0.425;-0.034;-0.000;
20200920_185456;0.572;-0.359;11.770;0.068;0.027;0.265;
20200920_185457;-0.979;1.235;10.355;0.067;0.006;-0.020;
20200920_185457;-1.762;5.353;9.234;-0.040;-0.122;-0.075;
20200920_185457;-0.879;0.919;11.176;0.020;-0.136;-0.079;
20200920_185457;-0.493;2.677;7.128;-0.266;-0.202;0.124;
20200920_185457;3.852;-5.667;31.029;0.176;-0.096;0.335;
20200920_185457;-1.841;7.930;8.449;0.122;-0.008;-0.045;
20200920_185457;1.013;12.505;8.593;0.019;0.078;-0.078;
20200920_185457;-3.048;4.918;2.729;-0.494;0.260;0.002;
20200920_185457;-0.381;0.809;7.439;-0.094;0.260;-0.030;
20200920_185457;-0.824;3.091;9.280;-0.017;-0.012;-0.384;
20200920_185458;0.745;3.974;4.626;0.169;-0.006;-0.237;
20200920_185458;-0.570;8.681;3.352;0.043;0.027;-0.254;
20200920_185458;-2.042;6.270;4.532;0.085;-0.158;-0.009;
20200920_185458;-1.008;2.543;10.779;-0.145;-0.179;0.252;
20200920_185458;-0.778;0.103;6.766;-0.025;-0.101;0.467;
20200920_185458;-0.644;2.480;10.163;0.117;0.025;0.569;
20200920_185458;-0.077;5.411;11.435;0.033;0.155;0.804;
20200920_185458;-0.522;5.104;10.408;0.087;0.246;0.704;
20200920_185458;-1.432;3.378;7.010;0.016;0.155;0.326;
20200920_185459;0.089;2.215;7.317;-0.084;0.036;0.146;
20200920_185459;-0.113;4.453;6.393;0.084;0.085;0.438;
20200920_185459;-1.221;4.877;9.232;0.044;0.123;0.516;
20200920_185459;-1.429;5.303;5.610;0.038;0.112;0.705;
20200920_185459;-0.989;2.916;7.295;-0.052;0.227;1.024;
20200920_185459;-1.420;2.844;-8.205;0.033;0.197;0.896;
20200920_185459;3.790;1.068;11.224;-0.066;0.257;1.153;
20200920_185459;-0.445;2.468;9.790;0.031;0.358;0.678;
20200920_185459;-0.644;2.720;7.779;0.006;0.352;0.859;
20200920_185500;-1.508;1.937;14.779;0.011;0.390;0.769;
20200920_185500;-3.294;-12.103;16.477;-0.468;0.495;0.479;
20200920_185500;-0.474;1.884;12.215;0.419;0.690;-1.158;
20200920_185500;-1.295;3.443;8.950;0.133;0.027;-1.448;
20200920_185500;-0.893;6.134;10.360;0.126;-0.190;-1.266;
20200920_185500;2.219;2.607;8.341;-0.059;-0.278;-0.667;
20200920_185500;-0.469;6.773;4.164;0.100;-0.153;-0.269;
20200920_185500;2.413;6.697;3.874;-0.087;-0.215;-0.082;
20200920_185500;1.824;1.061;9.603;-0.031;0.025;-0.089;
20200920_185500;-1.173;3.893;9.088;-0.027;0.155;-0.140;
20200920_185501;-2.631;0.206;10.678;-0.103;-0.154;-0.258;
20200920_185501;-2.488;-15.273;52.004;-0.210;-0.142;0.168;
20200920_185501;-0.524;11.047;-5.598;0.512;-0.357;0.296;
20200920_185501;-0.670;2.444;3.869;0.189;0.221;0.862;
20200920_185501;1.743;40.814;-3.790;1.986;0.377;0.475;
20200920_185501;-10.367;-15.172;17.432;0.059;0.047;-0.178;
20200920_185501;5.638;9.479;10.721;0.085;-0.163;0.254;
20200920_185501;-2.298;1.056;8.464;0.101;-0.047;0.243;
20200920_185501;0.543;5.495;9.759;-0.081;-0.084;0.172;
20200920_185502;1.255;4.319;8.255;-0.037;-0.035;0.141;
20200920_185502;0.431;3.407;9.436;-0.045;-0.027;-0.165;
20200920_185502;-1.269;4.523;9.639;-0.006;-0.101;0.010;
20200920_185502;1.542;5.052;6.898;0.028;-0.121;0.233;
20200920_185502;0.340;4.465;8.562;0.024;0.014;0.340;
20200920_185502;0.225;3.498;9.067;0.040;-0.023;0.285;
20200920_185502;2.004;4.168;9.591;0.174;0.117;0.569;
20200920_185502;-0.433;2.995;7.563;-0.000;0.210;0.362;
20200920_185502;-0.096;4.944;6.929;-0.030;0.167;0.279;
20200920_185503;1.492;3.108;10.573;0.061;0.162;0.206;
20200920_185503;0.000;5.243;8.509;0.021;0.153;0.117;
20200920_185503;-0.706;5.061;8.667;0.036;0.091;0.068;
20200920_185503;-1.192;9.445;-7.302;-0.120;0.104;0.399;
20200920_185503;0.421;4.345;11.258;-0.109;-0.031;0.349;
20200920_185503;-0.958;-2.883;33.959;0.037;0.264;0.529;
20200920_185503;2.976;4.920;8.566;0.132;0.032;0.914;
20200920_185503;-9.637;-4.065;22.671;-0.030;0.309;0.590;
20200920_185503;5.370;-3.460;6.615;-0.100;0.151;0.894;
20200920_185503;1.652;4.721;5.926;0.279;0.348;0.079;
20200920_185504;1.386;2.203;11.650;0.170;0.260;-0.296;
20200920_185504;0.323;3.273;6.436;0.117;0.225;0.013;
20200920_185504;-0.433;5.394;10.855;0.161;0.205;0.160;
20200920_185504;-0.960;0.429;11.217;0.070;0.197;0.176;
20200920_185504;0.599;2.480;8.499;-0.101;0.188;0.140;
20200920_185504;-0.797;3.230;12.737;0.060;0.229;0.190;
20200920_185504;0.120;6.663;7.360;-0.010;0.163;0.153;
20200920_185504;-0.656;8.595;-4.726;0.045;0.149;0.198;
20200920_185504;1.949;1.717;10.671;-0.224;0.038;0.313;
20200920_185505;-1.348;4.274;7.140;-0.075;0.206;0.170;
20200920_185505;1.695;6.390;8.294;0.052;0.069;-0.107;
20200920_185505;-1.018;3.634;9.153;0.137;0.049;-0.014;
20200920_185505;1.527;3.824;8.183;-0.027;-0.025;-0.283;
20200920_185505;0.357;5.622;8.854;-0.017;0.043;-0.357;
20200920_185505;-0.792;4.870;9.110;-0.085;0.042;0.040;
20200920_185505;-0.802;5.248;9.510;0.020;-0.012;-0.018;
20200920_185505;0.306;5.284;8.262;0.017;-0.026;0.091;
20200920_185505;-0.888;4.056;1.578;0.078;0.007;0.347;
20200920_185506;0.876;6.153;9.067;0.042;0.131;0.350;
20200920_185506;0.079;3.685;4.465;0.075;0.133;0.303;
20200920_185506;-0.393;2.179;8.952;0.079;0.152;0.156;
20200920_185506;0.175;5.873;4.824;0.114;0.073;-0.027;
20200920_185506;1.152;2.523;8.803;0.084;0.019;-0.145;
20200920_185506;-0.493;9.431;3.977;0.125;0.024;-0.053;
20200920_185506;0.342;3.428;10.144;-0.026;-0.020;0.057;
20200920_185506;0.862;2.112;10.563;-0.082;-0.049;0.098;
20200920_185506;1.137;3.223;9.232;0.057;0.055;-0.040;
20200920_185506;0.838;3.309;8.739;-0.170;-0.015;-0.062;
20200920_185507;0.297;3.352;4.283;0.075;0.061;-0.142;
20200920_185507;-0.048;2.200;8.746;-0.110;-0.061;0.094;
20200920_185507;-0.498;6.486;6.845;0.089;0.038;0.202;
20200920_185507;-0.654;1.166;10.393;-0.112;0.070;0.211;
20200920_185507;-0.816;3.936;9.067;-0.076;0.176;0.248;
20200920_185507;-0.244;4.791;11.758;0.008;0.198;-0.009;
20200920_185507;-1.022;3.424;3.048;0.053;0.059;-0.259;
20200920_185507;1.020;2.866;9.309;-0.018;-0.055;-0.420;
20200920_185507;-0.476;4.683;6.060;0.066;-0.114;-0.332;
20200920_185508;-0.570;5.052;8.119;0.054;-0.254;0.068;
20200920_185508;-0.448;2.555;8.205;-0.148;-0.067;0.422;
20200920_185508;0.867;7.008;3.338;0.061;-0.025;0.241;
20200920_185508;0.778;6.187;5.602;0.036;0.081;0.104;
20200920_185508;-0.462;3.529;13.278;-0.166;0.166;0.019;
20200920_185508;1.484;3.364;9.874;-0.026;-0.022;-0.184;
20200920_185508;1.374;4.954;7.216;-0.115;0.091;-0.044;
20200920_185508;-1.065;4.144;7.697;-0.109;0.098;-0.061;
20200920_185508;-0.148;2.248;10.048;-0.052;0.036;-0.246;
20200920_185508;-0.352;4.381;6.424;0.148;-0.034;-0.037;
20200920_185509;-0.156;5.092;7.357;0.099;-0.113;0.119;
20200920_185509;0.096;2.672;7.788;-0.049;-0.180;0.064;
20200920_185509;0.591;4.432;8.382;0.010;-0.068;0.141;
20200920_185509;0.201;5.911;9.548;0.069;-0.185;-0.022;
20200920_185509;-0.584;5.009;2.703;-0.035;-0.125;0.205;
20200920_185509;1.362;4.743;5.461;-0.031;0.033;0.233;
20200920_185509;1.796;4.697;10.549;-0.017;0.150;0.040;
20200920_185509;-1.377;3.780;7.781;0.006;0.241;-0.180;
20200920_185509;-0.275;4.120;8.882;0.162;0.064;-0.313;
20200920_185510;1.274;3.282;7.796;0.060;0.057;0.039;
20200920_185510;-0.060;3.340;6.780;-0.014;0.015;-0.139;
20200920_185510;-0.335;5.686;9.321;-0.033;-0.009;0.027;
20200920_185510;0.017;4.808;8.758;-0.029;0.017;0.062;
20200920_185510;-1.065;4.135;7.254;0.092;0.052;-0.022;
20200920_185510;-0.005;2.054;12.234;-0.134;-0.033;-0.092;
20200920_185510;0.194;4.168;9.179;0.105;-0.112;-0.163;
20200920_185510;0.515;2.014;10.295;-0.014;-0.064;-0.132;
20200920_185510;-0.450;5.064;11.274;0.019;-0.028;-0.132;
20200920_185510;-0.069;5.138;7.937;-0.065;-0.069;-0.010;
20200920_185511;0.354;6.522;8.315;0.047;-0.042;0.020;
20200920_185511;-0.393;4.061;11.238;-0.115;-0.025;0.062;
20200920_185511;-1.379;4.207;12.091;-0.254;-0.017;0.119;
20200920_185511;0.196;3.306;6.685;0.022;0.079;0.144;
20200920_185511;-0.096;3.505;11.540;0.013;0.101;0.055;
20200920_185511;0.690;4.111;5.593;0.020;0.080;-0.232;
20200920_185511;-1.350;5.799;9.060;0.057;0.006;-0.129;
20200920_185511;-0.194;3.701;10.130;-0.053;-0.114;-0.029;
20200920_185511;-0.280;5.550;7.412;0.006;-0.068;0.049;
20200920_185511;-0.970;5.689;8.444;0.039;-0.145;0.106;
20200920_185512;1.887;3.824;4.029;0.081;-0.017;0.160;
20200920_185512;0.441;4.573;7.685;0.035;0.045;0.045;
20200920_185512;-0.596;3.757;5.629;0.019;0.127;0.043;
20200920_185512;0.103;2.976;8.633;-0.037;0.082;-0.085;
20200920_185512;-0.433;3.687;8.358;0.133;-0.016;0.050;
20200920_185512;1.235;1.592;7.592;0.022;0.071;0.049;
20200920_185512;0.335;5.514;5.049;-0.133;0.065;-0.457;
20200920_185512;-0.220;4.475;7.180;-0.072;-0.079;-0.244;
20200920_185512;-3.211;4.958;10.549;0.104;0.048;0.310;
20200920_185513;0.187;3.584;11.487;0.046;-0.132;0.099;
20200920_185513;-0.627;2.555;9.608;0.028;-0.097;-0.034;
20200920_185513;1.120;3.440;7.831;-0.059;-0.069;0.075;
20200920_185513;2.083;6.639;2.373;0.099;0.035;0.101;
20200920_185513;1.480;3.855;2.483;0.316;0.159;-0.126;
20200920_185513;-0.673;3.299;3.328;-0.036;0.115;-0.378;
20200920_185513;1.211;1.973;9.244;-0.126;-0.032;-0.246;
20200920_185513;-0.354;3.285;7.913;-0.144;0.006;-0.050;
20200920_185513;0.280;5.832;10.400;0.077;-0.009;-0.117;
20200920_185514;-1.034;2.890;9.723;0.029;-0.020;-0.140;
20200920_185514;-1.482;4.389;11.430;-0.060;-0.034;0.092;
20200920_185514;-1.013;3.869;6.124;0.072;-0.117;-0.053;
20200920_185514;0.462;3.615;4.367;0.077;-0.128;-0.031;
20200920_185514;-1.063;3.402;4.918;0.096;-0.145;-0.035;
20200920_185514;-0.424;2.397;8.588;-0.103;-0.141;0.156;
20200920_185514;-0.357;1.994;6.869;-0.084;-0.173;0.163;
20200920_185514;0.134;6.366;3.428;0.068;-0.053;0.401;
20200920_185514;1.204;3.984;6.017;0.031;0.008;0.141;
20200920_185514;-0.546;6.220;11.080;0.044;0.116;0.244;
20200920_185515;-0.716;2.497;7.870;-0.169;0.205;0.143;
20200920_185515;1.305;3.199;7.877;-0.049;0.225;0.004;
20200920_185515;-0.934;4.997;6.134;0.032;0.140;-0.081;
20200920_185515;-1.106;2.339;8.447;0.017;0.133;-0.035;
20200920_185515;-0.943;3.280;9.263;-0.023;0.055;0.004;
20200920_185515;-0.596;5.227;8.531;0.105;0.131;0.301;
20200920_185515;1.630;3.160;12.893;-0.148;0.161;-0.107;
20200920_185515;0.249;3.213;9.629;-0.093;0.107;-0.388;
20200920_185515;1.891;9.752;1.472;0.254;0.036;-0.761;
20200920_185515;-0.455;3.685;12.282;0.296;-0.012;-0.662;
20200920_185516;-3.194;1.865;4.563;0.357;-0.240;-0.061;
20200920_185516;0.596;2.686;10.757;0.045;-0.223;0.546;
20200920_185516;1.247;1.403;6.424;-0.202;-0.020;0.138;
20200920_185516;-0.924;3.677;12.356;-0.126;-0.035;-0.002;
20200920_185516;-1.982;3.591;8.674;-0.111;-0.046;0.168;
20200920_185516;-1.312;0.622;10.453;-0.213;-0.029;0.187;
20200920_185516;-1.575;6.862;10.647;0.146;0.012;-0.197;
20200920_185516;-0.788;5.174;7.053;0.067;-0.191;0.002;
20200920_185516;0.802;-0.893;12.742;-0.103;-0.036;0.232;
20200920_185517;1.786;2.356;5.531;0.086;0.026;0.080;
20200920_185517;-2.804;-1.487;25.139;0.014;0.033;-0.077;
20200920_185517;3.026;0.414;9.175;0.220;0.171;-0.769;
20200920_185517;2.875;11.138;4.233;0.119;0.039;0.082;
20200920_185517;-0.165;-3.622;11.523;-0.345;0.129;-0.225;
20200920_185517;0.045;6.306;11.775;-0.051;0.030;-0.225;
20200920_185517;-0.575;1.468;8.875;-0.203;0.010;-0.011;
20200920_185517;0.084;4.683;14.298;-0.131;-0.122;-0.326;
20200920_185517;-1.741;4.858;7.927;0.017;-0.185;0.038;
20200920_185518;0.740;-0.644;10.283;-0.139;-0.221;0.448;
20200920_185518;1.257;6.065;8.612;-0.075;0.061;0.377;
20200920_185518;-0.041;4.697;9.838;0.005;0.115;0.149;
20200920_185518;2.291;3.065;13.094;-0.110;0.162;-0.067;
20200920_185518;0.144;3.330;8.368;-0.143;0.095;-0.324;
20200920_185518;-0.991;3.268;5.784;0.186;-0.010;-0.141;
20200920_185518;-2.227;2.148;10.068;-0.000;-0.068;0.091;
20200920_185518;-0.352;3.345;10.716;-0.000;0.017;0.269;
20200920_185518;-0.053;2.334;6.127;0.111;0.001;0.102;
20200920_185518;0.237;0.984;11.724;-0.080;-0.017;-0.032;
20200920_185519;0.397;2.519;6.371;-0.045;-0.045;-0.020;
20200920_185519;-0.488;5.248;5.076;0.055;-0.036;0.140;
20200920_185519;-0.766;2.164;9.761;-0.174;-0.028;-0.000;
20200920_185519;1.231;5.250;9.586;-0.195;-0.039;0.086;
20200920_185519;0.184;5.337;10.566;-0.021;0.105;0.034;
20200920_185519;1.111;2.830;5.928;0.087;0.085;0.057;
20200920_185519;0.259;4.863;16.125;-0.050;0.168;0.029;
20200920_185519;-1.245;8.140;13.712;-0.109;0.171;-0.060;
20200920_185519;0.340;3.077;7.199;0.325;0.227;-0.179;
20200920_185520;0.421;4.463;9.268;-0.102;0.102;-0.172;
20200920_185520;0.065;3.895;7.817;0.012;0.051;-0.269;
20200920_185520;-1.753;5.681;10.197;0.042;-0.017;-0.330;
20200920_185520;0.347;3.208;7.211;0.229;-0.120;-0.165;
20200920_185520;-0.271;3.383;12.316;-0.056;-0.109;-0.135;
20200920_185520;-0.644;4.611;10.376;-0.039;-0.120;-0.087;
20200920_185520;-1.317;3.072;6.527;0.044;-0.106;-0.035;
20200920_185520;0.086;3.764;5.787;0.062;-0.089;0.065;
20200920_185520;0.192;3.960;8.973;0.004;-0.012;0.096;
20200920_185520;-1.008;5.837;15.210;-0.222;-0.025;0.040;
20200920_185521;0.208;5.619;7.245;-0.059;0.003;0.070;
20200920_185521;0.713;-3.464;6.953;-0.274;-0.143;-0.082;
20200920_185521;2.945;2.265;8.150;-0.101;-0.066;-0.173;
20200920_185521;-0.278;4.307;13.185;0.082;-0.036;-0.240;
20200920_185521;1.087;4.745;9.819;0.163;-0.147;-0.156;
20200920_185521;-1.946;3.144;5.911;0.119;-0.089;-0.069;
20200920_185521;-0.960;5.974;9.637;0.226;-0.106;0.172;
20200920_185521;0.649;4.731;11.483;0.109;-0.072;0.368;
20200920_185521;-2.071;3.900;7.951;-0.103;0.036;0.112;
20200920_185521;-1.812;3.244;12.009;-0.347;0.036;0.034;
20200920_185522;-0.069;3.998;7.451;-0.165;0.034;0.099;
20200920_185522;0.812;3.800;8.054;0.061;0.012;-0.138;
20200920_185522;0.299;0.776;10.908;0.006;-0.027;-0.123;
20200920_185522;-0.555;0.043;7.760;0.013;-0.053;-0.066;
20200920_185522;0.122;5.902;7.058;0.131;-0.094;0.127;
20200920_185522;-0.093;6.517;7.788;0.056;-0.087;0.080;
20200920_185522;1.269;2.442;12.005;-0.067;-0.009;0.079;
20200920_185522;-1.662;1.997;8.368;-0.005;0.003;-0.000;
20200920_185522;-1.326;3.536;7.319;0.178;0.051;0.328;
20200920_185523;-0.237;3.840;5.662;-0.064;0.127;0.031;
20200920_185523;-0.778;3.412;8.590;-0.066;0.133;0.001;
20200920_185523;0.354;5.198;10.094;0.109;0.039;-0.097;
20200920_185523;1.379;2.480;13.329;0.234;0.119;-0.147;
20200920_185523;0.632;3.931;17.289;-0.068;-0.094;-0.461;
20200920_185523;-0.211;4.532;8.650;0.014;-0.107;-0.018;
20200920_185523;-0.105;2.794;14.109;-0.268;-0.158;0.033;
20200920_185523;-0.754;3.663;12.996;-0.153;-0.140;0.160;
20200920_185523;-0.060;6.239;11.442;0.096;0.038;0.280;
20200920_185524;-0.079;2.239;9.397;-0.001;0.133;-0.034;
20200920_185524;0.879;3.792;9.946;0.036;0.082;-0.295;
20200920_185524;-0.572;3.982;2.509;0.150;-0.056;-0.263;
20200920_185524;-0.431;1.942;19.228;-0.198;-0.073;0.002;
20200920_185524;0.101;3.883;3.314;0.007;-0.040;-0.076;
20200920_185524;0.692;-0.678;5.444;-0.460;-0.190;-0.047;
20200920_185524;-0.283;6.364;10.412;-0.074;-0.036;0.055;
20200920_185524;-0.034;6.883;5.198;0.182;-0.058;0.120;
20200920_185524;-0.713;2.502;7.175;0.008;-0.016;0.217;
20200920_185524;0.333;1.879;11.428;-0.092;0.038;0.173;
20200920_185525;-0.539;5.289;6.675;0.050;0.043;-0.004;
20200920_185525;-0.479;3.175;15.285;-0.030;0.121;-0.002;
20200920_185525;0.649;5.571;10.750;-0.108;0.108;-0.131;
20200920_185525;-0.206;6.012;6.424;0.006;0.069;-0.178;
20200920_185525;1.156;-0.771;6.594;-0.299;-0.046;-0.113;
20200920_185525;0.754;4.793;9.072;-0.132;0.002;0.012;
20200920_185525;-0.769;4.630;17.020;-0.132;0.027;-0.025;
20200920_185525;0.376;4.017;2.461;0.285;-0.019;0.014;
20200920_185525;0.852;2.385;8.756;-0.014;-0.018;0.070;
20200920_185526;-1.463;2.246;14.372;0.095;0.057;-0.015;
20200920_185526;-0.036;4.712;8.576;-0.043;0.040;0.045;
20200920_185526;-0.263;3.184;2.588;0.042;0.052;-0.072;
20200920_185526;-0.376;5.377;4.621;0.120;0.076;-0.137;
20200920_185526;0.069;7.448;13.865;0.109;0.032;-0.195;
20200920_185526;-0.883;6.670;8.502;0.149;-0.030;-0.297;
20200920_185526;-0.613;0.589;9.448;-0.082;-0.085;-0.071;
20200920_185526;-1.494;0.970;16.067;-0.023;-0.154;-0.081;
20200920_185526;-0.776;2.389;13.738;-0.009;-0.189;0.162;
20200920_185527;-0.215;0.484;10.068;-0.176;-0.134;0.098;
20200920_185527;-0.395;1.607;6.249;-0.065;0.005;0.165;
20200920_185527;-1.183;5.021;11.037;-0.025;-0.007;0.031;
20200920_185527;0.184;6.407;7.441;0.115;-0.048;-0.051;
20200920_185527;-0.737;0.934;7.786;-0.097;0.015;-0.006;
20200920_185527;-0.936;2.286;6.682;0.098;0.079;-0.066;
20200920_185527;0.560;3.151;8.909;-0.005;-0.029;0.082;
20200920_185527;-0.192;2.976;8.167;0.049;0.056;-0.112;
20200920_185527;0.062;4.041;9.076;-0.025;-0.053;0.031;
20200920_185527;0.067;5.217;9.778;0.030;0.003;-0.059;
20200920_185528;-2.128;2.916;12.558;-0.164;-0.002;0.314;
20200920_185528;0.309;4.951;10.338;-0.152;0.029;0.010;
20200920_185528;1.915;7.238;3.378;0.018;-0.001;0.172;
20200920_185528;-1.341;3.615;16.384;0.045;0.047;-0.057;
20200920_185528;0.328;2.732;11.880;0.053;-0.024;-0.057;
20200920_185528;-1.034;7.053;10.563;0.125;0.042;0.134;
20200920_185528;-2.344;4.310;10.975;-0.040;-0.018;0.036;
20200920_185528;0.144;3.371;8.327;0.034;0.059;0.149;
20200920_185528;0.225;3.984;7.166;0.012;0.021;-0.210;
20200920_185529;-2.756;4.946;7.642;0.115;-0.022;0.061;
20200920_185529;-0.199;3.943;13.613;-0.051;-0.022;0.280;
20200920_185529;0.972;3.783;11.904;-0.120;0.056;0.239;
20200920_185529;0.053;2.224;7.202;-0.059;0.124;0.040;
20200920_185529;0.180;5.016;9.321;0.022;0.039;-0.102;
20200920_185529;-0.965;3.831;7.623;0.062;0.161;-0.057;
20200920_185529;-0.002;3.938;9.859;0.005;0.097;-0.236;
20200920_185529;-1.358;0.879;11.959;-0.133;0.041;-0.219;
20200920_185529;-0.778;2.847;16.743;0.051;-0.174;-0.148;
20200920_185529;-0.555;5.816;9.278;0.137;-0.144;0.033;
20200920_185530;-1.063;5.746;5.808;0.249;-0.067;0.357;
20200920_185530;1.420;2.622;12.649;-0.238;-0.071;0.134;
20200920_185530;-0.144;3.699;8.461;-0.028;0.085;0.071;
20200920_185530;0.005;2.143;6.838;-0.168;0.079;-0.043;
20200920_185530;1.322;4.161;10.453;-0.250;0.074;-0.372;
20200920_185530;-0.385;-0.024;7.441;-0.139;0.007;-0.194;
20200920_185530;-0.476;5.916;9.649;-0.095;-0.130;-0.158;
20200920_185530;-0.369;1.800;12.632;-0.107;-0.193;0.176;
20200920_185530;-0.388;3.864;13.008;0.036;0.031;0.264;
20200920_185531;-1.362;5.459;5.526;0.162;0.056;-0.026;
20200920_185531;-0.211;1.736;9.960;-0.020;-0.071;0.034;
20200920_185531;0.764;-0.156;8.384;-0.188;0.020;0.309;
20200920_185531;-0.529;2.006;10.094;-0.214;0.132;0.229;
20200920_185531;0.007;1.686;10.915;0.027;0.156;-0.101;
20200920_185531;-0.309;0.644;8.495;-0.140;0.089;-0.182;
20200920_185531;-1.365;8.404;7.235;0.040;-0.071;-0.393;
20200920_185531;3.388;4.982;10.178;0.184;0.005;-0.003;
20200920_185531;-1.875;0.036;16.568;0.151;0.157;-0.204;
20200920_185531;1.027;8.265;8.250;0.019;-0.071;-0.440;
20200920_185532;0.488;1.997;15.498;-0.080;0.001;-0.317;
20200920_185532;-0.917;7.204;8.871;0.125;-0.159;-0.328;
20200920_185532;-1.501;9.553;-2.004;0.078;-0.098;0.302;
20200920_185532;0.809;0.673;14.626;-0.027;-0.063;0.385;
20200920_185532;1.202;1.810;5.787;0.320;0.176;-0.017;
20200920_185532;-4.336;5.988;9.845;0.248;0.003;-0.287;
20200920_185532;-1.875;6.977;4.130;-0.115;-0.122;0.258;
20200920_185532;-1.346;1.978;7.618;0.018;0.010;0.529;
20200920_185532;1.068;-0.101;14.406;-0.167;0.134;0.258;
20200920_185533;-0.575;2.344;6.335;0.072;0.193;-0.006;
20200920_185533;0.316;6.603;10.331;0.393;0.198;-0.036;
20200920_185533;-1.331;0.158;11.657;-0.196;0.156;-0.095;
20200920_185533;-2.234;4.015;3.261;-0.178;0.067;0.078;
20200920_185533;0.290;3.496;10.609;0.099;0.004;-0.135;
20200920_185533;-0.761;-0.299;11.056;-0.031;-0.014;-0.305;
20200920_185533;-0.491;5.461;6.352;-0.043;-0.083;-0.241;
20200920_185533;-0.244;3.651;13.860;-0.049;-0.174;-0.080;
20200920_185533;-0.175;2.404;7.456;0.182;-0.127;-0.012;
20200920_185533;0.328;5.284;8.100;0.220;-0.128;-0.087;
20200920_185534;-2.090;2.897;7.106;-0.078;-0.190;-0.195;
20200920_185534;-1.472;4.149;8.935;0.023;-0.173;0.263;
20200920_185534;-0.649;3.826;8.978;-0.129;0.065;0.456;
20200920_185534;-1.681;0.802;9.723;-0.195;0.090;-0.011;
20200920_185534;-0.196;6.414;5.854;-0.059;0.090;-0.012;
20200920_185534;0.235;5.100;10.190;0.052;0.123;-0.235;
20200920_185534;-0.747;3.165;12.866;0.072;0.145;-0.084;
20200920_185534;0.524;2.998;11.380;-0.015;0.084;-0.183;
20200920_185534;-0.199;2.737;10.104;0.105;0.116;-0.228;
20200920_185534;-1.188;2.203;15.818;0.085;-0.072;-0.218;
20200920_185535;-1.496;1.504;5.413;0.079;-0.094;0.063;
20200920_185535;-0.893;2.772;13.044;0.057;-0.072;-0.202;
20200920_185535;0.201;2.528;10.788;-0.096;-0.159;-0.151;
20200920_185535;-2.037;4.173;5.526;0.152;-0.139;0.119;
20200920_185535;1.712;1.954;13.738;0.038;-0.116;0.237;
20200920_185535;-2.298;2.998;15.507;-0.080;-0.118;0.084;
20200920_185535;-0.886;5.207;9.936;0.079;-0.027;0.186;
20200920_185535;0.156;4.199;9.828;0.048;0.084;0.150;
20200920_185535;-0.424;3.658;8.449;0.007;0.090;0.064;
20200920_185536;-0.103;4.044;16.264;0.042;0.125;0.069;
20200920_185536;-0.843;3.462;12.811;0.006;0.117;-0.090;
20200920_185536;0.749;5.942;8.842;0.129;0.166;-0.110;
20200920_185536;-0.867;1.197;9.041;0.150;0.096;-0.385;
20200920_185536;0.826;3.239;5.986;-0.067;-0.068;-0.134;
20200920_185536;-0.972;3.654;9.239;-0.153;0.068;-0.048;
20200920_185536;0.175;1.448;6.663;0.122;0.023;-0.106;
20200920_185536;0.819;4.250;8.916;0.157;-0.051;-0.154;
20200920_185536;-1.410;3.321;15.969;-0.124;-0.008;-0.187;
20200920_185536;0.180;2.248;3.385;0.073;-0.045;0.234;
20200920_185537;-1.135;4.913;13.329;0.150;-0.131;-0.506;
20200920_185537;-0.208;-0.668;11.854;0.018;-0.194;-0.084;
20200920_185537;-2.780;7.032;9.347;0.161;-0.091;0.232;
20200920_185537;-0.560;-0.105;3.191;-0.033;-0.255;0.195;
20200920_185537;-1.712;0.287;10.661;-0.054;-0.010;0.209;
20200920_185537;-1.041;4.858;6.493;0.125;-0.163;0.178;
20200920_185537;-0.208;1.053;10.297;-0.013;-0.072;0.351;
20200920_185537;-1.314;-0.532;13.467;-0.181;0.081;0.234;
20200920_185537;0.014;3.273;8.265;0.199;-0.031;0.081;
20200920_185538;0.378;5.368;11.487;0.135;0.066;0.257;
20200920_185538;-1.018;0.725;14.770;-0.015;0.105;0.073;
20200920_185538;-0.668;4.602;8.169;0.098;0.090;0.098;
20200920_185538;-0.977;3.677;6.381;0.032;0.046;0.023;
20200920_185538;-0.053;2.021;11.159;0.034;0.053;0.101;
20200920_185538;-0.086;-0.177;7.688;-0.059;0.041;-0.009;
20200920_185538;0.297;2.231;6.922;0.031;0.046;0.122;
20200920_185538;-0.864;4.975;7.985;0.034;0.104;0.025;
20200920_185538;-0.314;4.005;9.246;-0.047;0.061;0.040;
20200920_185538;-1.824;2.559;11.133;-0.078;0.081;-0.027;
20200920_185539;-0.060;3.426;10.051;-0.000;0.033;0.023;
20200920_185539;0.958;5.684;9.821;0.154;0.085;-0.013;
20200920_185539;-0.342;3.531;9.761;-0.007;0.189;-0.170;
20200920_185539;-0.656;2.751;8.531;0.003;0.057;-0.198;
20200920_185539;0.362;2.140;8.607;0.047;0.029;-0.161;
20200920_185539;0.249;1.056;7.092;-0.029;0.008;-0.365;
20200920_185539;-0.752;4.089;7.966;0.059;-0.060;-0.485;
20200920_185539;0.153;2.454;9.321;0.001;-0.121;-0.393;
20200920_185539;-0.800;1.769;9.163;-0.046;-0.116;-0.064;
20200920_185540;-1.207;3.989;7.468;0.019;-0.098;0.120;
20200920_185540;-0.948;4.978;8.468;0.013;0.022;0.216;
20200920_185540;0.464;5.593;10.187;-0.097;0.020;-0.051;
20200920_185540;0.010;2.959;7.523;-0.066;0.146;0.063;
20200920_185540;-0.656;2.186;5.906;-0.054;0.160;-0.207;
20200920_185540;0.685;1.566;10.568;-0.134;0.047;-0.490;
20200920_185540;0.362;3.697;8.298;-0.113;0.070;-0.627;
20200920_185540;-0.352;3.431;12.009;-0.037;0.112;-0.652;
20200920_185540;-0.239;4.731;5.588;0.125;0.097;-0.656;
20200920_185540;-0.769;4.937;7.527;0.263;0.075;-0.838;
20200920_185541;0.103;3.654;13.649;0.325;-0.025;-0.878;
20200920_185541;-1.748;4.056;9.512;0.040;-0.092;-0.971;
20200920_185541;0.718;2.998;9.407;0.323;-0.251;-0.944;
20200920_185541;-0.970;4.276;9.732;0.398;-0.180;-0.987;
20200920_185541;-1.853;3.364;13.611;0.367;-0.224;-1.056;
20200920_185541;-2.188;5.334;5.993;0.424;-0.326;-0.958;
20200920_185541;-2.047;4.571;7.870;0.502;-0.493;-0.678;
20200920_185541;-1.563;2.040;11.973;0.301;-0.473;-0.420;
20200920_185541;-1.334;0.419;7.240;0.324;-0.453;-0.154;
20200920_185542;-2.859;4.652;3.567;0.202;-0.357;0.086;
20200920_185542;-1.003;1.865;3.895;0.160;-0.286;0.080;
20200920_185542;-1.314;2.576;9.596;0.003;-0.286;0.190;
20200920_185542;0.113;1.932;9.074;-0.049;-0.230;0.035;
20200920_185542;-0.268;3.096;9.936;0.067;-0.221;-0.067;
20200920_185542;-0.603;3.606;9.072;-0.010;-0.163;-0.015;
20200920_185542;-0.522;2.569;5.569;-0.000;-0.124;0.121;
20200920_185542;-0.596;2.334;9.182;-0.144;-0.140;0.125;
20200920_185542;-0.019;4.482;5.040;0.016;-0.124;0.104;
20200920_185542;-0.560;3.721;8.301;-0.023;-0.078;0.249;
20200920_185543;0.024;3.196;9.309;0.024;-0.025;0.257;
20200920_185543;-0.062;3.306;9.594;0.027;0.008;0.214;
20200920_185543;-0.218;5.756;7.942;0.098;-0.047;0.097;
20200920_185543;1.161;2.349;9.881;-0.062;-0.025;0.295;
20200920_185543;-0.005;2.152;8.710;0.011;0.039;0.222;
20200920_185543;-0.881;2.626;8.985;-0.015;0.004;0.247;
20200920_185543;-0.591;2.933;8.751;0.050;0.065;0.636;
20200920_185543;-0.646;3.098;8.940;0.071;0.115;0.654;
20200920_185543;0.017;1.982;8.509;0.037;0.129;0.571;
20200920_185544;0.951;1.211;11.854;-0.021;0.217;0.519;
20200920_185544;-1.899;2.682;9.019;0.079;0.210;0.261;
20200920_185544;1.027;0.936;14.234;0.055;0.139;0.557;
20200920_185544;0.113;1.767;10.889;-0.124;0.334;0.792;
20200920_185544;-1.099;1.676;10.925;0.023;0.232;0.283;
20200920_185544;0.292;0.958;8.588;0.037;0.176;0.274;
20200920_185544;-0.867;2.023;9.560;0.015;0.241;0.457;
20200920_185544;-0.242;2.662;9.201;0.060;0.356;0.824;
20200920_185544;-1.338;2.049;9.419;0.107;0.446;1.164;
20200920_185545;-0.591;2.385;9.560;0.207;0.566;1.599;
20200920_185545;-1.075;2.004;10.563;0.185;0.470;1.435;
20200920_185545;-1.195;2.093;10.094;0.209;0.382;1.186;
20200920_185545;-0.400;2.978;10.324;0.066;0.201;1.036;
20200920_185545;2.887;2.964;8.677;0.040;0.116;0.792;
20200920_185545;0.316;3.797;9.436;0.156;0.104;0.090;
20200920_185545;1.329;4.257;8.169;-0.009;-0.049;-0.259;
20200920_185545;0.065;3.625;8.930;-0.012;-0.022;-0.243;
20200920_185545;1.731;2.804;8.724;0.066;0.059;0.313;
20200920_185545;0.678;5.181;8.428;0.256;0.197;0.521;
20200920_185546;1.247;4.130;8.674;0.010;0.045;0.199;
20200920_185546;2.195;3.515;8.645;-0.038;-0.039;-0.243;
20200920_185546;0.206;3.936;9.120;-0.031;-0.102;-0.537;
20200920_185546;1.796;3.840;8.277;-0.013;-0.099;-0.600;
20200920_185546;-0.002;4.197;8.940;0.005;-0.102;-0.724;
20200920_185546;0.972;4.257;8.540;-0.108;-0.252;-1.071;
20200920_185546;1.999;3.038;8.466;-0.199;-0.493;-1.596;
20200920_185546;0.390;3.314;8.444;-0.153;-0.500;-1.853;
20200920_185546;-0.407;3.575;8.617;-0.076;-0.426;-1.573;
20200920_185547;-1.597;3.757;8.830;-0.014;-0.226;-0.898;
20200920_185547;-0.970;3.845;8.727;-0.012;-0.061;-0.020;
20200920_185547;-0.476;3.433;8.988;-0.003;0.115;0.672;
20200920_185547;-0.357;3.563;9.033;-0.000;0.144;0.760;
20200920_185547;0.328;3.326;8.914;0.014;0.143;0.717;
20200920_185547;0.893;3.268;8.923;0.033;0.130;0.449;
20200920_185547;0.364;3.711;8.691;0.057;0.122;0.132;
20200920_185547;-1.077;4.202;8.930;0.043;0.084;-0.010;
20200920_185547;0.539;2.473;9.297;-0.015;-0.034;-0.050;
20200920_185547;0.412;3.275;8.205;0.012;0.022;-0.032;
20200920_185548;-0.491;3.965;8.770;0.014;0.001;-0.164;
20200920_185548;-0.977;3.790;8.712;-0.012;-0.038;-0.147;
20200920_185548;0.759;4.784;9.596;-0.021;-0.029;0.006;
20200920_185548;-0.702;3.761;9.098;0.013;0.027;0.064;
20200920_185548;0.048;4.147;8.471;0.002;0.009;0.102;
20200920_185548;-0.110;3.742;8.686;-0.026;-0.008;0.096;
20200920_185548;-0.371;3.077;9.189;-0.023;0.012;0.116;
20200920_185548;0.740;3.926;8.641;-0.023;-0.030;0.209;
20200920_185548;-0.158;3.206;9.242;-0.016;0.022;0.140;
20200920_185548;0.017;3.766;8.657;-0.003;0.004;0.121;
20200920_185549;-0.378;3.883;8.909;-0.026;-0.039;0.014;
20200920_185549;0.024;3.505;8.832;-0.049;-0.069;0.013;
20200920_185549;0.833;3.311;8.815;-0.031;-0.044;0.095;
20200920_185549;0.577;3.225;9.088;0.001;0.001;-0.026;
20200920_185549;-0.189;3.812;8.741;-0.003;-0.033;-0.176;
20200920_185549;-0.232;3.663;8.803;-0.036;-0.083;-0.164;
20200920_185549;0.745;3.175;8.985;-0.037;-0.076;-0.068;
20200920_185549;0.338;3.433;9.002;-0.001;0.007;0.043;
20200920_185549;0.424;3.397;8.801;0.003;0.013;0.097;
20200920_185550;0.419;3.395;9.036;0.013;0.026;0.110;
20200920_185550;0.790;3.223;8.849;0.005;0.001;-0.042;
20200920_185550;0.393;3.376;8.985;0.021;0.014;-0.141;
20200920_185550;0.072;3.591;8.861;0.017;0.010;-0.112;
20200920_185550;0.113;3.536;8.873;0.015;0.021;-0.015;
20200920_185550;0.163;3.515;8.871;0.020;0.041;0.021;
20200920_185550;0.153;3.450;8.947;0.020;0.040;0.004;
20200920_185550;-0.321;3.766;8.803;0.014;0.022;-0.022;
20200920_185550;-0.285;3.735;8.768;-0.004;-0.007;0.022;
20200920_185550;0.275;3.433;8.923;-0.004;0.010;0.147;
20200920_185551;0.163;3.481;8.971;0.003;0.013;0.052;
20200920_185551;-0.072;3.555;8.930;-0.003;-0.019;-0.087;
20200920_185551;-0.168;3.608;8.892;-0.013;-0.035;-0.100;
20200920_185551;0.012;3.531;8.885;-0.006;-0.016;-0.032;
20200920_185551;0.359;3.433;8.892;-0.000;0.003;0.016;
20200920_185551;0.199;3.539;8.827;0.003;0.002;-0.025;
20200920_185551;0.057;3.527;8.902;0.010;0.014;-0.032;
20200920_185551;0.127;3.510;8.885;0.007;0.016;-0.017;
20200920_185551;-0.098;3.651;8.803;0.018;0.029;0.001;
20200920_185552;-0.026;3.594;8.871;0.008;0.021;0.033;
20200920_185552;0.029;3.594;8.839;0.012;0.025;0.040;
20200920_185552;-0.366;3.757;8.820;-0.003;-0.003;-0.023;
20200920_185552;0.156;3.500;8.827;-0.010;-0.013;0.039;
20200920_185552;0.271;3.402;8.964;-0.002;0.005;0.048;
20200920_185552;0.105;3.553;8.902;0.005;-0.001;-0.031;
20200920_185552;-0.048;3.642;8.837;0.002;-0.007;-0.067;
20200920_185552;-0.144;3.704;8.818;0.001;0.001;0.021;
20200920_185552;0.120;3.508;8.930;-0.006;-0.006;0.016;
20200920_185553;-0.048;3.589;8.880;-0.004;-0.009;-0.036;
20200920_185553;-0.084;3.670;8.813;-0.011;-0.020;-0.008;
20200920_185553;0.091;3.498;8.873;-0.012;-0.015;0.032;
20200920_185553;0.146;3.448;8.971;-0.005;-0.013;-0.003;
20200920_185553;0.065;3.634;8.796;-0.007;-0.024;-0.036;
20200920_185553;0.093;3.558;8.851;-0.005;-0.006;0.013;
20200920_185553;0.017;3.508;8.945;-0.006;-0.002;0.016;
20200920_185553;0.196;3.508;8.842;-0.006;-0.010;0.020;
20200920_185553;0.060;3.443;8.964;-0.002;-0.002;0.004;
20200920_185553;0.081;3.517;8.928;-0.001;-0.004;-0.006;
20200920_185554;0.180;3.508;8.866;-0.003;-0.009;-0.003;
20200920_185554;0.077;3.517;8.892;-0.001;-0.006;-0.013;
20200920_185554;0.132;3.505;8.906;-0.001;0.004;0.019;
20200920_185554;0.105;3.498;8.911;-0.003;0.001;0.015;
20200920_185554;0.091;3.476;8.916;-0.003;-0.004;-0.004;
20200920_185554;0.156;3.493;8.906;-0.001;-0.002;0.005;
20200920_185554;0.077;3.496;8.916;-0.003;-0.003;-0.003;
20200920_185554;0.120;3.500;8.894;-0.004;-0.009;-0.002;
20200920_185554;0.180;3.452;8.942;-0.003;-0.006;0.008;
20200920_185554;0.117;3.488;8.897;-0.002;-0.003;-0.008;
20200920_185555;0.175;3.493;8.880;-0.004;-0.006;0.008;
20200920_185555;0.239;3.445;8.890;-0.003;-0.004;0.004;
20200920_185555;0.134;3.467;8.918;-0.002;-0.003;-0.001;
20200920_185555;0.196;3.460;8.902;0.001;-0.006;-0.004;
20200920_185555;0.385;3.397;8.904;0.003;-0.001;-0.010;
20200920_185555;0.271;3.412;8.882;0.008;0.010;-0.041;
20200920_185555;0.141;3.517;8.875;0.013;0.024;-0.048;
20200920_185555;-0.084;3.555;8.871;0.015;0.032;0.001;
20200920_185555;0.060;3.503;8.902;0.011;0.016;0.004;
20200920_185556;-0.010;3.546;8.921;0.014;0.017;-0.010;
20200920_185556;0.134;3.510;8.842;0.015;0.022;0.029;
20200920_185556;0.055;3.563;8.859;0.017;0.025;-0.001;
20200920_185556;-0.160;3.704;8.823;0.012;0.016;-0.020;
20200920_185556;-0.283;3.666;8.823;0.004;0.004;0.006;
20200920_185556;-0.062;3.613;8.861;-0.005;-0.009;0.023;
20200920_185556;-0.144;3.601;8.866;-0.009;-0.014;0.030;
20200920_185556;0.199;3.419;8.902;-0.012;-0.023;0.006;
20200920_185556;0.136;3.505;8.885;-0.000;0.003;-0.000;
20200920_185557;-0.101;3.613;8.923;-0.003;0.002;0.012;
20200920_185557;0.110;3.632;8.794;-0.004;-0.011;0.007;
20200920_185557;0.034;3.407;8.966;-0.005;-0.014;-0.030;
20200920_185557;-0.007;3.601;8.856;-0.002;-0.012;-0.042;
20200920_185557;0.263;3.428;8.875;-0.005;-0.016;-0.014;
20200920_185557;-0.136;3.582;8.856;-0.000;0.009;0.005;
20200920_185557;0.158;3.572;8.784;-0.006;-0.012;0.017;
20200920_185557;-0.060;3.610;8.847;-0.012;-0.013;0.014;
20200920_185557;0.177;3.445;8.957;-0.016;-0.026;0.024;
20200920_185557;0.153;3.448;8.916;-0.013;-0.024;-0.008;
20200920_185558;0.158;3.529;8.847;-0.014;-0.020;0.021;
20200920_185558;0.457;3.376;8.902;-0.009;-0.022;-0.009;
20200920_185558;0.196;3.400;8.938;-0.001;-0.008;-0.066;
20200920_185558;0.280;3.460;8.902;0.002;-0.002;-0.050;
20200920_185558;0.148;3.462;8.904;0.012;0.023;0.019;
20200920_185558;0.196;3.414;8.952;0.011;0.019;-0.009;
20200920_185558;-0.065;3.594;8.847;0.015;0.022;-0.024;
20200920_185558;-0.117;3.634;8.861;0.011;0.032;0.061;
20200920_185558;0.292;3.414;8.947;0.010;0.050;0.187;
20200920_185559;0.204;3.567;8.935;0.021;0.058;0.167;
20200920_185559;-0.335;3.685;8.962;0.005;0.016;-0.032;
20200920_185559;-0.022;3.613;8.772;-0.017;-0.019;0.043;
20200920_185559;0.290;3.405;8.993;-0.021;-0.020;0.066;
20200920_185559;0.316;3.371;9.029;-0.010;-0.017;-0.016;
20200920_185559;0.101;3.539;8.868;-0.007;-0.022;-0.052;
20200920_185559;0.242;3.474;8.885;-0.013;-0.018;0.018;
20200920_185559;0.450;3.369;8.923;-0.004;-0.001;0.040;
20200920_185559;0.196;3.448;8.950;-0.001;-0.007;-0.035;
20200920_185600;0.215;3.491;8.902;0.002;0.002;-0.001;
20200920_185600;0.249;3.438;8.918;0.003;0.006;0.006;
20200920_185600;0.122;3.524;8.909;0.003;0.003;-0.016;
20200920_185600;0.268;3.472;8.892;0.003;0.005;0.004;
20200920_185600;0.227;3.524;8.887;0.004;0.004;-0.002;
20200920_185600;0.230;3.522;8.892;0.002;0.004;0.001;
20200920_185600;0.237;3.512;8.890;0.001;0.002;0.006;
20200920_185600;0.158;3.496;8.904;-0.000;-0.003;-0.010;
20200920_185600;0.153;3.496;8.906;-0.000;-0.002;0.003;
20200920_185600;0.239;3.491;8.906;-0.003;-0.004;0.010;
20200920_185601;0.199;3.510;8.880;-0.003;-0.006;0.003;
20200920_185601;0.194;3.452;8.950;-0.002;-0.003;0.001;
20200920_185601;0.206;3.472;8.906;-0.003;-0.001;0.001;
20200920_185601;0.208;3.510;8.894;-0.000;0.002;0.010;
20200920_185601;0.237;3.488;8.914;-0.004;-0.008;-0.006;
20200920_185601;0.261;3.493;8.892;-0.002;-0.004;0.003;
20200920_185601;0.261;3.479;8.909;-0.002;-0.001;0.003;
20200920_185601;0.247;3.503;8.887;-0.003;-0.006;-0.002;
20200920_185601;0.326;3.460;8.904;-0.001;-0.003;0.001;
20200920_185602;0.220;3.476;8.921;-0.002;-0.002;0.009;
20200920_185602;0.271;3.440;8.940;-0.004;-0.003;-0.000;
20200920_185602;0.268;3.455;8.911;-0.001;-0.001;0.002;
20200920_185602;0.278;3.448;8.911;-0.000;-0.000;0.005;
20200920_185602;0.297;3.443;8.928;-0.001;-0.000;0.001;
20200920_185602;0.232;3.464;8.906;0.003;0.002;-0.002;
20200920_185602;0.235;3.474;8.904;-0.000;-0.000;-0.000;
20200920_185602;0.218;3.491;8.926;-0.003;-0.004;0.005;
20200920_185602;0.280;3.474;8.930;-0.005;-0.008;0.007;
20200920_185603;0.266;3.433;8.950;-0.009;-0.012;0.003;
20200920_185603;0.189;3.486;8.902;-0.009;-0.012;0.016;
20200920_185603;0.397;3.412;8.933;-0.012;-0.022;0.010;
20200920_185603;0.395;3.388;8.935;-0.010;-0.018;-0.002;
20200920_185603;0.354;3.395;8.945;-0.007;-0.011;0.009;
20200920_185603;0.464;3.357;8.942;-0.004;-0.007;0.007;
20200920_185603;0.417;3.393;8.945;-0.003;-0.008;-0.000;
20200920_185603;0.512;3.285;8.978;-0.000;-0.002;-0.007;
20200920_185603;0.948;3.922;9.086;0.038;0.068;-0.140;
20200920_185604;1.063;3.292;8.648;0.060;0.105;-0.023;
20200920_185604;0.285;3.998;8.566;0.093;0.201;0.079;
20200920_185604;0.611;3.828;8.619;0.125;0.230;0.114;
20200920_185604;-0.400;4.434;8.174;0.102;0.181;-0.193;
20200920_185604;-1.231;5.370;8.073;0.035;0.105;-0.257;
20200920_185604;-0.757;5.294;7.884;-0.015;0.013;-0.342;
20200920_185604;-0.658;4.752;7.934;-0.104;-0.189;-0.943;
20200920_185604;0.709;5.325;8.538;-0.088;-0.476;-1.816;
20200920_185604;-3.546;6.074;8.602;-0.052;-0.356;-0.816;
20200920_185604;-2.246;6.100;8.305;-0.212;-0.110;0.978;
20200920_185605;0.565;3.905;8.507;-0.141;0.012;1.050;
20200920_185605;1.257;5.574;7.147;-0.016;0.007;0.383;
20200920_185605;-1.913;3.886;6.888;-0.083;-0.109;-0.336;
20200920_185605;-0.924;1.994;13.206;0.170;-0.155;0.041;
20200920_185605;0.371;2.277;16.395;-0.189;-0.094;0.620;
20200920_185605;0.045;1.650;17.528;0.140;-0.041;0.758;
20200920_185605;-1.604;2.744;8.653;0.248;0.118;0.736;
20200920_185605;0.450;1.604;6.804;0.246;-0.082;0.708;
20200920_185605;0.342;-4.108;12.783;-0.063;0.278;0.460;
20200920_185606;3.869;3.953;7.508;-0.077;0.041;-0.135;
20200920_185606;0.888;2.832;9.780;0.039;0.092;-0.568;
20200920_185606;1.501;6.263;8.416;0.056;-0.153;-1.105;
20200920_185606;-1.762;5.380;4.922;0.073;-0.194;-0.204;
20200920_185606;-1.161;4.944;8.217;-0.100;-0.108;0.691;
20200920_185606;-1.027;4.271;10.070;-0.086;0.103;1.162;
20200920_185606;-0.002;3.577;9.634;0.032;0.149;1.059;
20200920_185606;1.147;3.069;9.153;0.125;0.317;0.944;
20200920_185606;1.788;2.497;10.096;0.275;0.438;0.508;
20200920_185606;4.195;5.430;6.096;0.069;0.433;-0.403;
20200920_185607;0.316;4.678;1.925;0.119;0.434;-0.676;
20200920_185607;-1.089;4.111;8.962;-0.092;0.303;-0.592;
20200920_185607;0.263;3.376;11.665;-0.128;0.176;-0.636;
20200920_185607;-0.735;1.626;7.463;-0.103;0.117;-0.641;
20200920_185607;-0.871;2.243;8.085;0.029;0.094;-0.505;
20200920_185607;-1.281;4.386;6.649;0.098;0.059;-0.673;
20200920_185607;1.566;2.919;10.927;-0.020;-0.060;-0.845;
20200920_185607;-0.347;2.916;10.108;-0.032;-0.083;-1.244;
20200920_185607;-1.736;2.662;6.254;0.166;-0.154;-0.842;
20200920_185608;-1.415;2.775;13.352;0.192;-0.254;-0.412;
20200920_185608;0.838;6.021;7.202;-0.119;-0.234;-0.587;
20200920_185608;0.213;1.427;4.575;0.145;-0.246;-0.435;
20200920_185608;0.658;7.671;20.245;1.509;-0.004;-0.078;
20200920_185608;-0.354;2.035;8.691;0.613;0.024;-0.583;
20200920_185608;-0.457;18.854;2.753;0.352;-0.100;-1.040;
20200920_185608;-3.057;-3.917;8.645;0.080;-0.306;-0.793;
20200920_185608;-0.146;7.740;15.282;0.149;-0.342;-0.732;
20200920_185608;-1.884;4.120;10.637;-0.015;-0.352;-0.361;
20200920_185608;-1.506;2.502;5.964;-0.074;-0.339;-0.114;
20200920_185609;-0.424;4.015;11.320;-0.306;-0.335;-0.301;
20200920_185609;-1.386;6.041;6.086;0.407;-0.383;-0.344;
20200920_185609;-0.567;1.542;7.417;0.249;-0.280;0.206;
20200920_185609;-1.221;3.955;10.331;0.087;-0.106;0.174;
20200920_185609;3.895;-1.360;7.321;-0.194;-0.212;-0.467;
20200920_185609;-1.587;5.780;4.465;0.054;-0.045;-0.621;
20200920_185609;-0.261;4.750;9.242;0.093;-0.088;-0.349;
20200920_185609;0.321;6.127;9.380;-0.152;-0.131;-0.383;
20200920_185609;-0.881;11.514;6.376;0.268;-0.039;-0.286;
20200920_185610;-1.858;4.300;4.240;0.156;-0.082;-0.500;
20200920_185610;-1.408;5.811;1.657;0.182;-0.129;-0.292;
20200920_185610;-1.051;5.090;7.894;0.075;-0.276;-0.273;
20200920_185610;-1.441;3.740;9.972;0.097;-0.225;-0.242;
20200920_185610;-1.700;0.012;6.615;-0.195;-0.382;0.090;
20200920_185610;-0.991;2.073;9.720;-0.062;-0.211;0.038;
20200920_185610;-0.067;3.259;9.902;0.072;-0.154;0.186;
20200920_185610;1.034;2.811;6.694;-0.282;-0.214;-0.065;
20200920_185610;-0.603;3.797;7.889;0.027;-0.042;0.145;
20200920_185610;-0.860;7.412;5.567;0.149;-0.008;0.112;
20200920_185611;1.472;6.302;-1.295;0.228;-0.045;-0.059;
20200920_185611;0.529;-0.254;13.989;0.182;0.026;-0.012;
20200920_185611;-0.771;5.329;3.103;0.010;0.010;-0.037;
20200920_185611;0.943;2.840;9.905;0.092;0.024;-0.190;
20200920_185611;-3.845;9.898;8.784;-0.564;-0.129;-0.074;
20200920_185611;-1.006;1.331;3.340;0.091;-0.013;0.055;
20200920_185611;0.385;4.841;18.584;0.332;0.035;-0.188;
20200920_185611;0.338;1.513;11.262;-0.056;-0.091;-0.074;
20200920_185611;-0.218;6.934;10.537;0.191;-0.114;0.008;
20200920_185612;-0.955;6.270;6.045;0.156;-0.130;0.034;
20200920_185612;-0.462;1.678;13.975;0.033;-0.149;0.176;
20200920_185612;-1.353;5.160;4.080;0.020;-0.066;0.460;
20200920_185612;-0.168;2.413;8.231;-0.003;0.038;0.453;
20200920_185612;1.058;2.552;11.636;-0.043;0.040;0.075;
20200920_185612;2.119;4.848;1.240;0.173;0.080;-0.203;
20200920_185612;-0.129;1.563;6.759;-0.069;-0.009;-0.004;
20200920_185612;-1.908;3.534;3.766;0.015;0.023;0.470;
20200920_185612;0.098;2.792;10.669;0.235;0.148;0.489;
20200920_185612;-1.700;-3.292;12.538;-0.772;-0.029;-0.618;
20200920_185613;-2.672;-15.356;39.540;1.710;0.073;0.806;
20200920_185613;-4.688;-15.833;44.417;2.158;0.094;0.569;
20200920_185613;-5.581;-27.466;47.649;-4.757;0.045;-0.466;
20200920_185613;3.862;21.430;-22.960;-6.479;-0.247;-0.181;
20200920_185613;1.027;3.958;0.175;-1.217;0.032;-0.285;
20200920_185613;-1.049;-0.311;22.087;1.443;0.180;-0.441;
20200920_185613;-2.303;-0.019;18.816;0.463;0.032;0.170;
20200920_185613;-1.812;5.751;9.651;-0.767;-0.160;0.349;
20200920_185613;1.719;10.041;-7.956;-1.142;0.150;-0.308;
20200920_185614;0.187;4.362;10.008;0.379;0.103;-0.118;
20200920_185614;1.025;5.310;5.442;0.076;0.083;-0.351;
20200920_185614;-0.376;2.495;13.238;-0.039;0.025;-0.471;
20200920_185614;2.011;12.282;-8.753;1.110;-0.029;0.460;
20200920_185614;1.022;-7.705;14.504;-0.821;-0.158;-0.053;
20200920_185614;-1.451;1.645;23.399;-0.374;0.072;-0.636;
20200920_185614;1.595;14.827;8.902;0.130;-0.051;0.006;
20200920_185614;-0.108;-5.227;16.451;-0.429;-0.151;-0.285;
20200920_185614;0.821;2.871;8.104;-0.306;-0.214;-0.432;
20200920_185614;-0.500;3.072;17.214;0.021;-0.175;0.095;
20200920_185615;-3.165;3.309;8.171;0.203;-0.042;0.234;
20200920_185615;-0.476;1.693;6.649;-0.116;-0.088;0.129;
20200920_185615;-0.232;1.647;5.076;0.181;0.019;-0.245;
20200920_185615;0.421;2.878;20.530;-0.375;-0.150;-0.305;
20200920_185615;2.042;8.727;-5.102;0.167;-0.041;0.160;
20200920_185615;-3.108;-1.216;15.818;0.216;-0.137;0.283;
20200920_185615;1.683;0.113;9.483;-0.659;-0.244;-0.241;
20200920_185615;1.085;6.041;4.530;0.028;-0.057;0.087;
20200920_185615;0.347;3.033;5.866;-0.029;-0.082;-0.089;
20200920_185616;-1.561;1.015;14.023;0.119;-0.130;0.272;
20200920_185616;0.690;8.511;5.899;0.450;-0.046;0.516;
20200920_185616;-1.290;3.771;10.946;0.005;-0.143;0.181;
20200920_185616;0.158;1.022;12.397;-0.317;-0.095;0.236;
20200920_185616;-2.102;4.207;-0.373;-0.048;-0.029;0.039;
20200920_185616;-0.366;7.910;4.262;0.169;-0.122;0.159;
20200920_185616;-4.920;9.809;12.608;-0.060;-0.175;1.109;
20200920_185616;1.147;-4.676;10.661;0.019;0.023;0.923;
20200920_185616;0.448;6.697;3.740;0.240;0.153;0.764;
20200920_185617;0.275;0.086;41.513;0.104;0.219;0.180;
20200920_185617;-0.472;6.189;6.251;-0.838;-0.059;0.067;
20200920_185617;5.641;-16.027;6.898;-0.877;-0.279;0.451;
20200920_185617;-1.094;-2.756;14.708;0.130;-0.047;0.512;
20200920_185617;-0.517;10.288;9.574;-0.492;0.101;0.589;
20200920_185617;1.506;-0.687;11.576;0.537;0.253;0.424;
20200920_185617;1.001;8.595;0.788;0.682;0.176;0.074;
20200920_185617;-0.670;5.507;-2.761;-0.039;0.040;0.034;
20200920_185617;-1.990;-4.300;9.615;-0.403;0.132;0.749;
20200920_185617;-0.460;4.803;5.322;0.372;0.188;0.311;
20200920_185618;1.166;10.511;-8.923;0.499;0.059;0.235;
20200920_185618;0.587;-1.010;7.757;0.576;0.106;0.424;
20200920_185618;0.464;5.389;14.849;-0.240;0.189;0.251;
20200920_185618;0.503;5.933;11.406;0.453;0.141;0.323;
20200920_185618;0.302;3.103;8.193;-0.000;0.156;0.260;
20200920_185618;0.613;1.032;10.793;-0.017;0.167;0.295;
20200920_185618;-0.388;2.274;10.707;0.029;0.294;0.221;
20200920_185618;-0.072;1.561;14.243;0.457;0.316;0.176;
20200920_185618;1.425;1.441;15.038;-0.349;0.284;0.226;
20200920_185619;0.785;7.463;0.311;-0.158;0.283;0.254;
20200920_185619;0.400;5.181;-2.665;-0.121;0.388;-0.074;
20200920_185619;-0.567;6.440;17.717;0.445;0.407;-0.496;
20200920_185619;3.139;2.535;14.444;-0.063;0.267;-0.188;
20200920_185619;1.111;5.193;6.165;-0.020;0.176;-0.753;
20200920_185619;-0.728;-0.213;13.015;-0.002;0.135;-0.532;
20200920_185619;-2.310;5.868;7.934;0.061;0.113;-0.164;
20200920_185619;0.421;0.362;15.921;0.033;0.059;-0.518;
20200920_185619;0.766;-0.733;21.304;0.394;0.038;-0.385;
20200920_185619;-0.208;2.543;8.045;-0.360;-0.013;0.136;
20200920_185620;0.400;2.540;13.917;0.037;0.003;-0.196;
20200920_185620;0.812;5.787;6.146;-0.170;-0.163;-0.508;
20200920_185620;1.063;4.855;5.270;0.190;-0.132;-0.572;
20200920_185620;-1.626;1.561;13.168;0.344;-0.097;-0.242;
20200920_185620;-2.258;5.380;14.679;-0.015;-0.322;0.280;
20200920_185620;-0.713;4.247;-2.100;0.033;-0.137;0.302;
20200920_185620;5.248;-12.744;29.305;2.986;0.318;-1.819;
20200920_185620;9.306;-0.455;16.867;-2.841;-0.902;0.540;
20200920_185620;3.280;6.828;7.745;0.073;-0.342;-0.378;
20200920_185621;-0.977;-0.153;24.902;0.028;-0.013;-0.109;
20200920_185621;0.091;1.532;11.576;0.062;-0.027;-0.047;
20200920_185621;-1.240;0.747;12.637;0.469;-0.173;-0.098;
20200920_185621;1.149;1.518;8.001;0.051;-0.164;0.053;
20200920_185621;0.220;3.903;9.828;0.163;-0.102;0.135;
20200920_185621;-1.209;5.713;8.899;0.083;-0.055;0.113;
20200920_185621;0.455;2.777;9.280;0.045;0.016;0.110;
20200920_185621;0.455;2.193;10.779;-0.117;0.056;-0.025;
20200920_185621;-0.275;4.458;11.763;0.043;0.135;-0.130;
20200920_185622;1.688;4.044;19.860;0.170;-0.051;-0.151;
20200920_185622;-1.257;4.985;1.089;0.152;0.007;0.031;
20200920_185622;-1.353;-0.541;13.779;-0.342;0.048;0.152;
20200920_185622;0.474;-2.636;10.439;-0.443;0.046;0.052;
20200920_185622;-0.627;5.780;10.060;-0.148;0.113;0.080;
20200920_185622;0.060;4.982;6.831;0.033;0.035;-0.199;
20200920_185622;1.444;4.990;9.103;0.165;-0.062;-0.306;
20200920_185622;-0.881;2.823;10.566;0.021;-0.058;0.015;
20200920_185622;-0.180;5.382;5.875;-0.042;-0.045;-0.010;
20200920_185622;0.108;6.632;5.100;0.211;-0.147;-0.064;
20200920_185623;0.177;4.331;11.509;-0.096;-0.149;0.151;
20200920_185623;0.026;3.297;9.354;-0.034;-0.102;0.263;
20200920_185623;0.072;3.079;5.768;-0.135;-0.039;0.178;
20200920_185623;-0.450;1.647;9.852;0.156;-0.042;0.153;
20200920_185623;-0.041;2.878;9.299;0.189;0.021;0.070;
20200920_185623;-0.187;5.516;7.350;-0.086;0.029;0.096;
20200920_185623;-0.917;4.266;9.455;-0.053;0.027;0.067;
20200920_185623;0.182;4.695;4.056;-0.065;0.094;0.034;
20200920_185623;0.306;5.895;5.674;0.014;0.075;-0.031;
20200920_185624;-0.261;6.941;11.308;0.180;0.066;-0.062;
20200920_185624;0.139;4.192;6.479;-0.013;0.037;-0.023;
20200920_185624;0.378;2.981;10.094;0.008;0.021;-0.001;
20200920_185624;0.098;5.883;5.765;0.078;0.043;-0.012;
20200920_185624;-0.520;2.801;16.949;-0.109;0.043;0.014;
20200920_185624;-1.276;3.045;10.642;-0.018;0.043;0.018;
20200920_185624;-0.958;-2.088;9.309;-0.231;0.065;0.062;
20200920_185624;-0.098;4.216;7.132;0.040;0.125;0.085;
20200920_185624;0.704;3.144;9.376;-0.075;0.101;-0.112;
20200920_185624;-0.534;3.369;12.699;-0.119;0.165;-0.178;
20200920_185625;0.824;5.725;3.728;-0.129;0.114;-0.275;
20200920_185625;0.266;4.484;10.350;-0.058;0.051;-0.316;
20200920_185625;-0.177;5.737;9.934;0.166;0.001;-0.238;
20200920_185625;-0.065;4.240;9.606;0.089;-0.062;-0.226;
20200920_185625;-1.262;4.365;8.164;0.167;-0.063;-0.196;
20200920_185625;0.141;2.210;10.036;0.092;-0.092;-0.132;
20200920_185625;0.330;3.285;9.567;0.209;-0.129;-0.146;
20200920_185625;-0.187;5.004;10.465;0.089;-0.123;-0.118;
20200920_185625;-0.441;4.987;7.819;-0.035;-0.134;-0.096;
20200920_185625;-0.857;3.079;7.559;0.002;-0.214;-0.056;
20200920_185626;-1.051;5.540;7.214;0.201;-0.225;-0.000;
20200920_185626;-0.491;3.541;8.648;-0.009;-0.258;0.143;
20200920_185626;-1.140;4.987;8.507;0.034;-0.192;0.288;
20200920_185626;-0.266;2.174;9.256;0.035;-0.129;0.336;
20200920_185626;-0.601;7.269;5.277;0.124;-0.025;0.292;
20200920_185626;0.776;-0.215;17.413;0.769;0.057;0.277;
20200920_185626;-1.269;8.095;-2.236;-0.225;0.116;0.258;
20200920_185626;0.670;-1.683;6.845;-0.234;-0.023;0.209;
20200920_185626;-0.608;8.495;8.248;0.367;0.101;0.125;
20200920_185627;0.290;-0.294;9.601;0.210;0.070;0.107;
20200920_185627;-0.828;3.031;4.149;0.032;0.092;0.228;
20200920_185627;-0.958;1.398;12.996;0.227;0.131;0.291;
20200920_185627;-0.172;4.554;16.475;-0.044;0.180;0.085;
20200920_185627;-0.587;3.227;9.225;-0.104;0.229;0.043;
20200920_185627;-0.158;7.353;0.685;0.572;0.172;-0.114;
20200920_185627;-0.218;1.039;21.478;0.016;0.185;-0.197;
20200920_185627;-0.860;0.687;8.468;-0.034;0.122;-0.172;
20200920_185627;-0.098;4.274;8.025;-0.303;0.070;-0.164;
20200920_185628;-1.118;2.993;7.930;-0.052;0.008;-0.170;
20200920_185628;-1.065;2.205;13.551;0.032;-0.032;-0.051;
20200920_185628;-0.460;3.270;10.072;0.061;-0.041;0.048;
20200920_185628;-0.065;3.156;8.253;-0.000;-0.003;0.010;
20200920_185628;0.204;3.409;10.168;0.034;-0.003;-0.009;
20200920_185628;-0.706;3.172;7.906;0.047;0.037;-0.016;
20200920_185628;-0.345;3.373;12.620;-0.019;0.010;-0.043;
20200920_185628;0.618;4.410;7.032;-0.219;0.008;-0.112;
20200920_185628;-0.304;5.243;6.565;-0.105;0.003;-0.081;
20200920_185628;-0.074;5.435;4.178;-0.039;-0.012;-0.094;
20200920_185629;-0.960;7.132;5.167;0.280;-0.017;-0.079;
20200920_185629;0.304;4.276;9.175;0.116;-0.051;-0.012;
20200920_185629;-0.737;3.883;7.721;0.177;-0.047;-0.022;
20200920_185629;-0.745;4.465;6.697;0.149;-0.060;0.015;
20200920_185629;-0.304;6.115;7.396;0.030;-0.051;0.005;
20200920_185629;0.127;6.376;6.421;0.060;-0.034;0.021;
20200920_185629;0.606;4.319;8.787;0.052;-0.023;0.083;
20200920_185629;-0.045;4.001;9.816;-0.027;0.002;0.031;
20200920_185629;-0.232;4.448;7.640;-0.000;0.054;-0.011;
20200920_185630;-0.962;3.024;9.591;-0.023;0.094;-0.013;
20200920_185630;-0.436;6.007;9.076;-0.001;0.042;-0.063;
20200920_185630;0.769;3.115;7.606;-0.070;-0.012;-0.053;
20200920_185630;0.201;6.823;8.679;0.039;-0.015;-0.104;
20200920_185630;-0.235;3.498;8.756;0.040;-0.001;-0.067;
20200920_185630;0.589;6.244;8.892;0.065;-0.050;-0.077;
20200920_185630;-0.426;5.040;10.843;0.084;-0.029;-0.026;
20200920_185630;-0.560;3.436;9.086;-0.052;-0.038;-0.025;
20200920_185630;-2.339;7.855;9.323;0.012;-0.035;0.018;
20200920_185630;-0.594;5.598;8.629;0.081;0.027;0.172;
20200920_185631;0.383;0.802;9.704;-0.137;0.065;-0.042;
20200920_185631;-0.618;4.594;10.422;-0.022;0.118;-0.028;
20200920_185631;0.881;3.297;8.633;0.077;0.092;-0.097;
20200920_185631;0.697;7.264;6.428;-0.281;0.101;-0.224;
20200920_185631;0.156;5.830;9.538;0.077;0.107;-0.261;
20200920_185631;-0.417;6.795;8.868;0.079;0.049;-0.274;
20200920_185631;-0.060;7.039;3.768;0.191;0.062;-0.281;
20200920_185631;-0.373;5.224;6.330;-0.020;0.045;-0.285;
20200920_185631;-0.330;3.891;11.049;0.033;-0.017;-0.361;
20200920_185632;-0.613;4.827;10.879;0.067;-0.052;-0.396;
20200920_185632;0.323;4.039;10.218;0.154;-0.089;-0.385;
20200920_185632;-1.068;3.519;9.541;-0.027;-0.120;-0.318;
20200920_185632;-0.175;3.019;9.790;0.024;-0.190;-0.288;
20200920_185632;-0.587;5.289;7.719;0.206;-0.231;-0.307;
20200920_185632;-0.620;3.891;5.286;0.144;-0.284;-0.154;
20200920_185632;-0.733;5.133;3.405;0.236;-0.290;-0.229;
20200920_185632;-1.599;5.270;6.136;0.333;-0.290;0.051;
20200920_185632;-0.352;3.598;12.242;-0.365;-0.361;-0.030;
20200920_185632;-1.255;4.355;9.060;-0.260;-0.305;0.137;
20200920_185633;-0.007;2.492;11.447;-0.113;-0.292;0.246;
20200920_185633;-0.038;4.451;11.291;-0.020;-0.251;0.261;
20200920_185633;0.405;5.569;7.108;-0.052;-0.213;0.286;
20200920_185633;-1.053;3.867;8.325;-0.007;-0.180;0.335;
20200920_185633;-0.625;1.803;6.433;-0.149;-0.114;0.492;
20200920_185633;-0.151;3.491;8.289;-0.070;-0.020;0.413;
20200920_185633;-0.074;5.892;9.459;-0.146;0.017;0.463;
20200920_185633;-0.417;2.799;8.198;0.061;0.042;0.399;
20200920_185633;-0.045;2.385;9.376;0.217;0.086;0.397;
20200920_185634;0.225;4.896;5.701;0.135;0.145;0.317;
20200920_185634;0.263;2.763;9.309;0.015;0.146;0.257;
20200920_185634;-0.156;5.337;7.532;0.208;0.137;0.235;
20200920_185634;-0.077;4.281;11.564;0.079;0.113;0.229;
20200920_185634;-0.048;2.404;8.681;-0.014;0.166;0.208;
20200920_185634;-0.405;2.543;8.226;-0.016;0.108;0.281;
20200920_185634;-0.050;3.613;9.290;-0.025;0.148;0.257;
20200920_185634;-0.646;4.324;9.280;0.018;0.135;0.272;
20200920_185634;-0.536;3.460;9.957;0.037;0.163;0.286;
20200920_185634;-0.204;3.316;10.187;-0.082;0.188;0.286;
20200920_185635;-0.160;3.280;9.608;-0.056;0.253;0.290;
20200920_185635;0.804;2.976;9.244;-0.062;0.293;0.167;
20200920_185635;0.666;5.804;10.946;0.267;0.265;0.182;
20200920_185635;1.803;4.187;4.156;-0.186;0.304;-0.072;
20200920_185635;0.673;2.502;7.365;-0.232;0.284;-0.095;
20200920_185635;-1.671;1.609;21.069;-0.031;0.291;-0.061;
20200920_185635;-0.067;1.609;7.494;0.031;0.166;-0.124;
20200920_185635;2.658;4.970;7.973;-0.737;0.132;-0.353;
20200920_185635;-1.319;-0.318;5.729;-0.046;0.023;-0.232;
20200920_185636;1.310;3.596;0.275;-0.521;-0.057;-0.138;
20200920_185636;-0.953;0.235;7.357;0.146;-0.126;0.078;
20200920_185636;1.032;2.468;10.211;-0.100;-0.040;0.148;
20200920_185636;-0.115;5.562;13.135;0.086;-0.049;-0.069;
20200920_185636;-0.836;4.195;2.564;-0.046;-0.009;-0.059;
20200920_185636;-0.350;4.274;7.807;0.147;-0.101;-0.057;
20200920_185636;-0.678;3.057;10.781;-0.559;-0.035;0.058;
20200920_185636;-1.099;2.433;9.668;-0.036;-0.046;0.098;
20200920_185636;1.180;-0.500;7.171;-0.342;-0.045;-0.023;
20200920_185636;0.476;2.665;9.900;-0.042;-0.059;-0.010;
20200920_185637;-0.512;3.773;8.701;0.001;-0.102;0.048;
20200920_185637;-0.117;3.203;8.411;0.081;-0.130;0.059;
20200920_185637;-0.541;6.002;6.601;0.044;-0.098;0.213;
20200920_185637;-0.699;1.733;11.734;0.104;-0.105;0.243;
20200920_185637;0.043;3.498;6.694;0.315;-0.052;0.236;
20200920_185637;-0.113;4.729;9.213;-0.030;-0.009;0.138;
20200920_185637;-0.807;4.927;5.765;0.186;-0.026;0.271;
20200920_185637;-0.275;5.437;9.804;-0.096;0.042;0.236;
20200920_185637;0.632;0.977;4.561;-0.109;0.078;0.211;
20200920_185638;-0.321;3.718;12.447;-0.070;0.107;0.023;
20200920_185638;-0.486;3.881;7.491;0.071;0.097;0.110;
20200920_185638;-1.180;-0.074;11.825;0.169;0.049;0.326;
20200920_185638;1.255;3.582;4.310;0.260;0.068;0.173;
20200920_185638;-0.788;4.930;12.965;-0.116;0.111;0.019;
20200920_185638;-1.231;3.575;9.110;-0.052;0.078;0.113;
20200920_185638;1.125;1.032;5.339;-0.067;0.062;0.149;
20200920_185638;-1.018;2.969;8.780;0.126;0.132;0.166;
20200920_185638;0.678;3.503;8.926;0.018;0.128;0.153;
20200920_185638;0.797;2.825;8.818;0.102;0.154;-0.053;
20200920_185639;0.431;1.822;9.637;-0.010;0.164;-0.120;
20200920_185639;-0.038;4.769;7.096;0.078;0.062;-0.026;
20200920_185639;-0.397;4.221;8.526;0.200;0.120;0.016;
20200920_185639;1.405;5.430;3.747;0.170;0.046;0.040;
20200920_185639;-0.649;6.127;4.453;0.175;0.080;-0.044;
20200920_185639;0.362;4.276;7.472;0.084;0.125;-0.040;
20200920_185639;1.731;3.879;7.257;0.077;0.088;-0.029;
20200920_185639;-0.687;2.351;10.704;-0.163;0.076;-0.301;
20200920_185639;0.316;3.364;9.165;-0.042;-0.023;-0.305;
20200920_185640;-1.070;4.489;9.273;-0.009;-0.098;-0.078;
20200920_185640;0.208;4.594;9.922;0.031;-0.150;0.007;
20200920_185640;-0.168;3.136;4.626;0.170;-0.190;0.038;
20200920_185640;-0.299;7.685;9.170;-0.032;-0.191;0.047;
20200920_185640;0.139;3.790;7.508;0.110;-0.173;0.154;
20200920_185640;0.158;2.952;8.179;-0.071;-0.158;0.147;
20200920_185640;0.218;2.988;6.752;-0.067;-0.142;0.164;
20200920_185640;0.460;2.667;10.544;-0.009;-0.125;0.281;
20200920_185640;0.809;5.071;3.570;-0.179;-0.076;0.284;
20200920_185641;-1.693;2.152;10.884;-0.015;-0.033;0.335;
20200920_185641;1.829;4.037;5.243;-0.293;0.012;0.133;
20200920_185641;0.192;4.360;10.175;-0.160;0.067;0.221;
20200920_185641;-1.204;-0.563;1.233;0.229;0.197;0.185;
20200920_185641;-2.310;9.110;0.618;0.545;0.115;0.247;
20200920_185641;1.674;6.067;6.285;0.380;0.118;0.085;
20200920_185641;0.326;1.846;15.785;0.535;0.124;-0.220;
20200920_185641;-0.395;2.813;15.237;-0.280;-0.002;-0.071;
20200920_185641;-0.333;5.574;5.646;-0.100;-0.040;0.095;
20200920_185641;0.079;3.797;10.274;0.038;0.103;0.230;
20200920_185642;-1.118;5.377;5.064;0.044;0.212;0.117;
20200920_185642;1.396;7.238;6.646;0.307;0.075;0.048;
20200920_185642;1.365;5.301;11.238;0.241;0.250;0.080;
20200920_185642;1.695;6.381;10.008;-0.010;0.150;-0.234;
20200920_185642;-0.752;3.165;7.925;0.045;0.131;-0.020;
20200920_185642;0.373;4.585;8.030;0.054;0.042;-0.081;
20200920_185642;0.649;6.402;8.095;0.201;0.119;-0.083;
20200920_185642;0.225;2.358;9.895;-0.050;0.132;-0.278;
20200920_185642;-1.542;3.697;7.966;-0.058;-0.025;-0.129;
20200920_185642;-0.249;2.397;12.170;0.184;0.008;0.068;
20200920_185643;1.168;0.632;10.467;0.008;0.005;-0.042;
20200920_185643;0.113;3.043;11.655;0.231;0.072;-0.577;
20200920_185643;-0.151;3.259;11.748;-0.056;-0.272;-0.109;
20200920_185643;0.716;5.102;4.322;-0.270;-0.270;0.202;
20200920_185643;-0.512;2.899;6.536;-0.072;-0.131;0.008;
20200920_185643;-1.626;5.160;3.036;-0.455;-0.031;0.331;
20200920_185643;0.967;9.756;3.790;0.312;-0.009;0.036;
20200920_185643;-0.553;3.687;10.475;0.032;0.178;-0.327;
20200920_185643;-0.460;3.733;9.510;0.040;-0.040;-0.298;
20200920_185644;-1.264;3.591;11.068;0.104;-0.239;-0.025;
20200920_185644;-0.608;0.764;14.018;-0.232;-0.173;0.356;
20200920_185644;-0.965;2.205;10.762;-0.247;-0.076;0.105;
20200920_185644;0.024;4.460;9.596;-0.202;-0.019;0.123;
20200920_185644;0.007;5.605;9.481;0.114;0.022;-0.219;
20200920_185644;-1.978;4.932;13.551;-0.094;-0.071;0.016;
20200920_185644;1.439;2.085;7.666;0.069;-0.110;0.330;
20200920_185644;0.879;1.111;13.736;-0.062;-0.008;-0.029;
20200920_185644;-0.895;3.405;14.255;-0.149;-0.043;0.134;
20200920_185644;-1.640;0.560;11.935;-0.075;-0.017;0.183;
20200920_185645;1.089;-2.926;11.696;0.185;0.031;0.066;
20200920_185645;0.862;2.358;13.159;0.108;0.027;0.069;
20200920_185645;1.041;-2.720;10.855;-0.051;0.074;0.041;
20200920_185645;-1.925;3.754;9.337;-0.033;0.097;0.107;
20200920_185645;1.872;7.247;18.991;-0.259;0.120;0.022;
20200920_185645;-0.536;4.544;1.030;0.095;0.063;-0.042;
20200920_185645;-0.603;-0.881;25.101;-0.072;0.072;0.042;
20200920_185645;0.050;0.227;-2.318;-0.174;0.083;-0.043;
20200920_185645;4.020;-4.872;10.127;-2.691;-0.617;0.459;
20200920_185646;3.002;-11.598;17.066;-1.491;-0.588;0.255;
20200920_185646;-2.107;7.719;8.219;0.157;0.050;0.385;
20200920_185646;1.046;-2.703;11.322;0.147;0.089;0.088;
20200920_185646;-0.984;4.147;12.795;0.071;0.109;0.039;
20200920_185646;-0.826;3.316;10.013;0.282;0.053;0.013;
20200920_185646;-1.693;-4.712;9.582;-0.118;0.038;0.078;
20200920_185646;-0.144;0.101;10.621;-0.304;0.086;0.120;
20200920_185646;-1.537;3.227;16.355;0.085;0.118;-0.011;
20200920_185646;-1.482;-0.326;8.921;0.462;0.219;0.141;
20200920_185646;2.689;-13.431;25.977;0.141;0.220;0.223;
20200920_185647;-0.498;-3.670;9.105;0.095;0.124;-0.165;
20200920_185647;-2.775;-3.567;3.886;0.129;0.145;0.114;
20200920_185647;1.973;5.559;15.299;-0.194;0.231;0.176;
20200920_185647;0.553;-4.645;13.360;-0.160;0.020;-0.426;
20200920_185647;-0.012;6.572;11.612;0.251;0.050;-0.081;
20200920_185647;-0.421;1.372;11.040;0.258;-0.010;-0.437;
20200920_185647;0.606;13.044;12.445;0.364;-0.109;-0.355;
20200920_185647;-0.378;2.638;11.576;0.096;0.020;0.248;
20200920_185647;1.820;-0.443;11.765;-0.098;-0.118;-0.542;
20200920_185648;-0.563;4.164;6.091;0.101;-0.195;-0.713;
20200920_185648;-1.156;0.627;9.246;0.042;-0.242;-0.190;
20200920_185648;-1.219;3.127;5.571;0.095;-0.180;0.183;
20200920_185648;-1.415;2.224;8.236;0.005;-0.164;0.569;
20200920_185648;-0.529;4.982;6.440;0.066;-0.038;0.842;
20200920_185648;-0.026;2.842;8.847;0.103;0.071;0.840;
20200920_185648;-0.807;4.161;8.076;0.141;0.139;0.639;
20200920_185648;-0.278;5.255;9.862;-0.005;0.145;0.480;
20200920_185648;-0.630;1.875;7.709;0.019;0.085;0.222;
20200920_185648;-0.172;3.891;8.200;0.003;0.032;0.499;
20200920_185649;-0.611;2.820;10.865;-0.071;0.081;0.614;
20200920_185649;-0.419;-0.120;11.562;0.014;0.163;0.722;
20200920_185649;0.615;2.028;9.426;-0.074;0.216;0.931;
20200920_185649;0.486;3.000;9.301;0.095;0.293;0.957;
20200920_185649;1.142;5.626;6.977;0.097;0.386;1.197;
20200920_185649;0.239;4.453;10.151;0.156;0.401;0.490;
20200920_185649;0.970;3.100;9.091;0.128;0.282;-0.041;
20200920_185649;-0.369;4.044;8.432;0.094;0.103;-0.313;
20200920_185649;-0.991;1.118;11.425;0.061;0.196;0.603;
20200920_185650;0.103;2.528;8.923;0.008;0.296;1.318;
20200920_185650;1.731;3.029;7.453;0.109;0.462;1.200;
20200920_185650;0.907;2.045;9.273;0.198;0.398;0.282;
20200920_185650;-0.211;3.464;8.531;0.120;0.140;-0.573;
20200920_185650;1.532;0.412;8.246;-0.047;-0.008;-0.443;
20200920_185650;0.340;4.305;10.056;-0.018;0.014;-0.069;
20200920_185650;-0.043;2.246;8.684;0.021;0.194;0.427;
20200920_185650;-0.541;4.729;10.554;0.019;0.281;0.671;
20200920_185650;-7.697;2.715;26.111;1.383;0.478;0.725;
20200920_185650;-0.977;2.442;2.672;0.611;0.478;1.049;
20200920_185651;-2.251;1.987;16.022;0.124;0.686;1.128;
20200920_185651;0.192;2.370;7.578;0.272;0.627;0.307;
20200920_185651;-4.736;5.171;8.593;0.026;0.116;-0.517;
20200920_185651;-0.244;4.719;8.296;0.004;0.146;0.259;
20200920_185651;-0.036;4.587;8.516;0.012;0.153;0.148;
20200920_185651;-2.145;5.516;7.839;-0.052;-0.010;-0.269;
20200920_185651;-0.895;4.602;8.334;-0.140;-0.264;-0.169;
20200920_185651;-0.177;6.175;6.886;-0.161;-0.154;0.092;
20200920_185651;1.712;5.078;9.558;-0.087;0.051;0.486;
20200920_185652;-0.108;4.992;9.019;0.022;0.137;0.515;
20200920_185652;0.223;4.973;5.856;0.052;0.248;0.698;
20200920_185652;-13.580;-3.419;17.267;-0.369;0.415;0.754;
20200920_185652;1.946;3.874;9.335;-0.186;0.246;1.722;
20200920_185652;2.071;4.860;8.631;-0.012;0.257;0.511;
20200920_185652;2.030;3.622;9.294;-0.028;0.141;0.170;
20200920_185652;2.514;1.810;8.464;0.022;0.168;-0.093;
20200920_185652;0.821;3.187;8.396;0.098;0.080;-1.039;
20200920_185652;0.543;4.017;7.535;0.039;-0.120;-1.584;
20200920_185652;1.654;3.553;8.126;-0.005;-0.154;-1.557;
20200920_185653;-0.129;4.705;5.442;0.026;-0.111;-1.390;
20200920_185653;-2.207;3.778;8.653;-0.005;0.080;-0.537;
20200920_185653;-2.619;4.515;10.362;0.006;-0.053;-0.247;
20200920_185653;0.062;4.049;8.097;0.104;-0.125;-0.426;
20200920_185653;-1.511;4.324;7.774;0.117;-0.238;-0.905;
20200920_185653;-1.259;2.763;9.780;0.122;-0.262;-0.714;
20200920_185653;-1.607;4.781;9.562;0.143;-0.246;-0.537;
20200920_185653;-1.729;1.676;6.986;0.196;-0.300;-0.610;
20200920_185653;-0.342;5.705;9.694;0.140;-0.262;-0.491;
20200920_185653;-0.934;4.080;8.993;0.127;-0.169;0.068;
20200920_185654;-1.501;7.537;8.375;0.195;-0.239;-0.419;
20200920_185654;1.705;7.520;7.712;0.170;-0.280;-0.559;
20200920_185654;-3.067;4.288;9.076;0.386;-0.207;-0.863;
20200920_185654;-0.601;2.744;3.867;0.091;-0.402;-0.752;
20200920_185654;-2.263;6.086;5.784;0.100;-0.311;-0.295;
20200920_185654;-2.315;6.182;6.282;0.161;-0.123;0.332;
20200920_185654;-1.070;3.019;8.780;-0.110;-0.123;0.924;
20200920_185654;0.534;2.684;10.281;-0.037;-0.014;0.759;
20200920_185654;1.935;4.197;7.642;-0.082;0.029;0.149;
20200920_185655;1.563;8.854;3.419;0.124;0.074;-0.366;
20200920_185655;1.336;1.894;9.270;0.072;-0.091;-1.080;
20200920_185655;1.573;1.501;10.602;0.154;-0.052;-1.105;
20200920_185655;-0.371;4.283;9.692;-0.006;-0.023;-1.170;
20200920_185655;-2.401;1.935;4.669;0.087;-0.180;-1.406;
20200920_185655;-5.511;6.452;8.935;-0.110;-0.416;-0.704;
20200920_185655;-6.117;4.597;9.258;-0.013;-0.409;-0.061;
20200920_185655;-1.923;3.261;9.333;0.128;-0.276;0.787;
20200920_185655;-2.995;5.835;6.527;0.001;-0.113;1.200;
20200920_185655;-0.520;2.741;9.682;0.003;-0.003;0.988;
20200920_185656;-0.184;4.252;9.792;0.046;0.010;0.579;
20200920_185656;2.035;6.615;6.462;-0.018;-0.115;-0.253;
20200920_185656;-0.045;3.347;7.599;0.053;-0.130;-0.523;
20200920_185656;-0.567;3.515;15.435;0.033;-0.229;-0.164;
20200920_185656;-1.314;2.710;8.808;0.137;-0.215;0.185;
20200920_185656;-0.309;3.639;10.403;-0.021;-0.139;0.849;
20200920_185656;-0.357;5.047;12.268;-0.051;-0.020;0.912;
20200920_185656;0.723;3.709;9.890;0.037;0.071;1.002;
20200920_185656;1.927;2.811;7.005;-0.095;0.251;1.212;
20200920_185657;1.099;4.377;12.658;0.111;0.396;0.601;
20200920_185657;1.211;5.655;7.666;0.250;0.386;-0.095;
20200920_185657;0.350;5.514;9.926;0.210;0.331;-0.141;
20200920_185657;2.775;5.320;3.907;0.211;0.222;-0.378;
20200920_185657;0.395;2.411;11.538;0.108;0.113;-0.486;
20200920_185657;-2.188;5.782;7.137;-0.087;0.084;0.010;
20200920_185657;0.225;2.009;9.553;0.007;0.030;-0.026;
20200920_185657;1.156;4.274;7.726;0.137;-0.043;-0.682;
20200920_185657;-1.554;4.934;6.366;0.052;-0.177;-0.590;
20200920_185658;-1.389;2.749;10.463;-0.128;-0.116;0.241;
20200920_185658;0.189;5.866;3.711;0.029;-0.069;0.433;
20200920_185658;0.115;3.057;15.151;-0.112;0.082;0.537;
20200920_185658;0.991;4.350;10.542;-0.104;0.109;0.712;
20200920_185658;3.984;8.708;-6.517;-0.004;0.263;0.483;
20200920_185658;2.071;4.736;15.493;0.085;0.251;-0.120;
20200920_185658;0.460;8.557;1.633;0.178;0.214;-0.502;
20200920_185658;-0.326;2.732;21.143;0.027;-0.033;-0.735;
20200920_185658;-1.092;5.035;12.206;0.087;-0.108;-0.691;
20200920_185658;-2.433;5.935;12.907;0.095;-0.256;-0.408;
20200920_185659;0.242;4.738;-2.643;0.075;-0.083;0.023;
20200920_185659;1.346;5.373;7.307;0.448;-0.072;-0.089;
20200920_185659;-0.876;5.887;6.191;0.012;-0.146;-0.229;
20200920_185659;-2.033;2.933;8.456;0.075;-0.023;0.351;
20200920_185659;-3.072;1.784;23.183;-0.179;0.138;1.024;
20200920_185659;-1.245;3.292;9.467;0.051;0.021;0.661;
20200920_185659;0.972;5.150;6.500;0.036;0.078;0.281;
20200920_185659;-0.881;0.797;18.122;-0.072;0.188;0.316;
20200920_185659;0.014;4.070;14.827;-0.265;0.036;0.260;
20200920_185700;-0.347;4.618;10.839;-0.010;0.033;-0.226;
20200920_185700;0.977;4.420;6.019;0.038;0.071;-0.006;
20200920_185700;-0.532;7.214;3.254;0.189;0.108;-0.471;
20200920_185700;-0.543;4.403;10.822;0.241;0.046;-0.426;
20200920_185700;-0.436;5.179;10.977;0.104;-0.000;-0.049;
20200920_185700;-1.429;0.986;10.206;0.101;0.074;0.333;
20200920_185700;0.390;7.056;2.047;0.149;0.046;0.381;
20200920_185700;-0.086;2.753;14.020;-0.299;0.130;0.474;
20200920_185700;0.091;6.565;9.742;0.242;0.076;0.018;
20200920_185700;-3.879;6.771;6.742;0.244;0.012;-0.506;
20200920_185701;1.784;6.246;17.396;0.142;-0.132;-0.591;
20200920_185701;1.080;0.218;9.907;0.175;-0.360;-0.324;
20200920_185701;-0.500;5.923;2.294;0.060;-0.155;-0.270;
20200920_185701;-2.595;4.372;4.482;0.080;-0.096;0.204;
20200920_185701;1.786;4.772;7.381;0.042;-0.071;0.370;
20200920_185701;-1.350;2.279;-1.300;0.202;-0.008;0.820;
20200920_185701;1.829;-5.988;27.948;0.622;0.208;0.380;
20200920_185701;-4.858;8.140;10.197;0.636;0.226;0.519;
20200920_185701;1.374;2.823;15.744;-0.149;-0.035;-0.199;
20200920_185701;-0.352;9.366;-1.923;0.077;-0.063;-0.241;
20200920_185702;16.158;9.574;-9.148;-0.039;-0.268;-0.454;
20200920_185702;3.091;3.934;2.253;0.182;-0.020;0.410;
20200920_185702;6.115;3.000;7.025;-0.063;-0.167;0.024;
20200920_185702;-0.575;3.642;25.829;-0.059;0.047;-0.008;
20200920_185702;-3.831;-1.013;12.232;-0.233;0.236;0.661;
20200920_185702;-1.063;7.635;-11.914;0.234;0.250;0.315;
20200920_185702;5.119;9.055;7.477;-0.088;0.063;0.086;
20200920_185702;0.728;-1.089;18.929;-0.108;0.020;-0.422;
20200920_185702;-0.500;0.000;0.371;0.098;0.073;-0.388;
20200920_185703;-4.678;-0.917;33.698;-0.185;-0.255;-0.596;
20200920_185703;-1.123;2.535;-9.876;0.010;-0.085;0.124;
20200920_185703;1.202;5.100;12.131;-0.039;-0.258;-0.261;
20200920_185703;-1.290;11.411;0.091;0.073;-0.020;0.673;
20200920_185703;-1.049;0.450;7.640;0.011;-0.029;0.481;
20200920_185703;-2.373;10.068;-4.970;0.333;0.153;0.829;
20200920_185703;2.030;4.939;16.965;0.011;0.124;0.723;
20200920_185703;2.919;3.110;10.477;-0.077;0.336;0.325;
20200920_185703;0.986;1.331;8.571;-0.193;0.304;-0.178;
20200920_185704;0.400;6.780;7.166;0.193;0.049;-1.072;
20200920_185704;-3.407;-0.575;13.199;0.249;-0.071;-1.727;
20200920_185704;-5.250;1.501;40.560;0.119;-0.205;-1.025;
20200920_185704;-7.377;-0.833;23.813;-1.309;-0.145;0.546;
