Timestamp;Accel_x;Accel_y;Accel_z;Gyro_x;Gyro_y;Gyro_z;
20200827_155419;0.630;6.493;7.149;0.163;-0.193;0.069;
20200827_155419;0.694;6.507;6.970;-0.002;0.006;0.009;
20200827_155419;0.615;6.531;6.977;0.001;0.021;0.041;
20200827_155419;0.816;6.512;6.970;-0.001;0.011;0.034;
20200827_155419;0.776;6.560;6.888;0.001;-0.003;-0.008;
20200827_155420;0.742;6.613;6.845;0.001;-0.010;-0.026;
20200827_155420;2.466;5.933;6.661;0.016;-0.009;-0.247;
20200827_155420;-1.173;6.577;6.936;-0.010;-0.135;-0.326;
20200827_155420;0.496;6.795;7.068;0.015;0.177;0.252;
20200827_155420;1.046;6.395;7.084;-0.000;0.001;-0.023;
20200827_155420;0.484;6.682;7.058;0.013;-0.048;-0.181;
20200827_155420;0.395;6.721;6.771;0.019;0.058;0.037;
20200827_155420;0.608;6.697;6.905;0.021;0.069;0.035;
20200827_155420;0.350;6.663;6.749;0.025;0.043;-0.034;
20200827_155420;0.565;6.541;6.962;0.034;0.068;-0.020;
20200827_155421;-0.242;6.479;6.958;0.044;0.091;-0.024;
20200827_155421;0.280;6.862;6.704;0.052;0.217;0.198;
20200827_155421;0.318;7.400;6.098;0.077;0.297;0.266;
20200827_155421;-0.599;8.114;5.595;0.066;0.271;0.251;
20200827_155421;-0.996;8.487;4.954;0.028;0.242;0.347;
20200827_155421;-0.057;8.995;4.080;-0.066;0.011;0.156;
20200827_155421;1.657;7.499;5.468;-0.090;-0.028;0.074;
20200827_155421;-0.460;8.825;6.124;-0.053;0.116;0.154;
20200827_155421;-0.704;10.403;7.017;-0.065;-0.116;-0.193;
20200827_155421;1.458;4.113;7.910;-0.037;0.066;0.047;
20200827_155422;-0.141;9.256;5.054;0.111;0.181;-0.097;
20200827_155422;-2.241;6.675;7.377;-0.064;0.168;0.172;
20200827_155422;0.833;7.013;6.950;-0.048;0.383;1.106;
20200827_155422;1.621;4.836;5.986;0.128;0.999;1.568;
20200827_155422;-0.500;9.522;5.653;0.098;0.830;1.123;
20200827_155422;0.239;7.436;3.072;0.009;0.579;0.720;
20200827_155422;1.755;8.722;11.981;0.132;0.126;-0.117;
20200827_155422;0.809;5.332;7.824;-0.166;-0.464;-0.870;
20200827_155422;0.833;5.794;4.860;0.041;0.574;0.781;
20200827_155423;-1.693;7.013;5.598;0.037;0.604;0.676;
20200827_155423;-0.218;6.479;8.866;-0.095;0.409;0.938;
20200827_155423;2.468;2.677;7.812;0.094;0.728;1.136;
20200827_155423;-1.377;7.968;6.251;0.109;0.722;1.178;
20200827_155423;1.640;9.754;6.179;0.140;0.572;1.119;
20200827_155423;-2.088;8.976;6.673;0.313;0.707;0.922;
20200827_155423;0.785;7.044;8.294;0.030;0.299;0.305;
20200827_155423;4.245;3.330;7.654;0.114;0.498;0.784;
20200827_155423;1.068;6.622;6.706;0.253;0.783;0.797;
20200827_155423;-1.753;7.865;6.862;0.259;0.738;0.830;
20200827_155424;1.398;4.348;7.003;0.245;0.735;1.081;
20200827_155424;1.784;5.490;8.150;0.330;0.640;0.507;
20200827_155424;-2.037;7.604;7.046;0.123;0.324;0.108;
20200827_155424;1.240;4.745;8.179;-0.002;0.464;0.613;
20200827_155424;1.425;5.157;7.264;0.235;0.960;1.171;
20200827_155424;-3.309;7.049;6.309;0.357;0.643;0.386;
20200827_155424;1.099;7.082;6.867;0.227;0.297;-0.242;
20200827_155424;0.637;6.881;6.294;-0.085;-0.555;-1.296;
20200827_155424;-1.269;7.726;4.848;-0.053;-0.484;-0.499;
20200827_155424;0.584;7.314;7.448;0.028;0.592;1.362;
20200827_155425;1.384;5.904;7.937;0.057;0.631;1.005;
20200827_155425;1.161;6.823;7.906;0.117;0.483;0.701;
20200827_155425;-0.579;6.139;7.032;0.124;0.560;0.815;
20200827_155425;-1.571;7.113;6.579;0.089;0.673;1.159;
20200827_155425;2.758;4.932;9.689;0.031;0.716;1.271;
20200827_155425;2.006;6.103;8.174;0.113;0.471;0.398;
20200827_155425;2.476;3.361;8.507;-0.066;-0.125;-0.384;
20200827_155425;1.872;5.236;6.366;-0.019;-0.056;-0.184;
20200827_155425;1.094;5.684;7.302;-0.068;-0.023;-0.198;
20200827_155426;1.537;6.960;8.382;-0.069;0.074;0.211;
20200827_155426;0.718;8.677;7.585;-0.058;0.256;0.448;
20200827_155426;1.566;7.111;3.534;0.228;0.185;0.187;
20200827_155426;1.841;5.423;6.998;-0.021;0.144;0.192;
20200827_155426;1.530;6.888;6.785;-0.020;0.217;0.413;
20200827_155426;0.800;5.104;6.347;0.090;0.287;0.508;
20200827_155426;-0.685;6.306;7.412;0.091;0.550;0.809;
20200827_155426;2.868;7.250;5.219;0.119;0.409;0.644;
20200827_155426;1.566;7.542;4.741;0.187;0.300;0.177;
20200827_155426;1.800;6.026;7.875;0.177;0.053;-0.127;
20200827_155427;-0.158;6.086;7.666;0.140;0.304;0.143;
20200827_155427;1.176;5.344;9.780;0.082;0.320;0.303;
20200827_155427;2.605;6.859;6.409;0.143;0.396;0.141;
20200827_155427;0.699;6.404;6.840;0.102;0.132;-0.437;
20200827_155427;1.985;8.040;6.500;0.060;-0.124;-0.735;
20200827_155427;1.547;5.782;5.868;-0.070;-0.110;-0.789;
20200827_155427;-0.838;6.306;7.412;0.003;-0.241;-0.545;
20200827_155427;0.486;6.395;7.274;-0.007;-0.189;-0.373;
20200827_155428;-0.927;6.318;8.181;-0.020;-0.107;-0.253;
20200827_155428;-0.050;5.514;7.058;0.006;-0.188;-0.296;
20200827_155428;0.474;5.480;8.334;0.009;-0.227;-0.346;
20200827_155428;0.017;5.095;8.461;-0.017;-0.249;-0.351;
20200827_155428;-0.158;5.689;7.910;0.003;-0.257;-0.268;
20200827_155428;-0.548;4.982;7.927;-0.023;-0.199;-0.173;
20200827_155428;-0.953;5.516;8.708;-0.023;-0.137;-0.062;
20200827_155428;0.247;5.399;7.300;0.004;-0.120;-0.016;
20200827_155428;0.175;4.937;8.720;-0.019;-0.091;-0.074;
20200827_155428;-0.328;5.892;7.398;0.031;-0.202;-0.312;
20200827_155429;-0.256;7.092;7.374;0.004;-0.232;-0.271;
20200827_155429;-0.436;5.461;7.262;-0.013;-0.096;-0.031;
20200827_155429;-0.551;5.516;7.319;-0.008;-0.135;-0.009;
20200827_155429;-0.311;6.165;7.084;0.017;-0.151;0.029;
20200827_155429;-0.721;5.906;7.606;0.012;-0.047;0.251;
20200827_155429;-0.649;6.263;7.551;0.011;0.172;0.654;
20200827_155429;0.098;4.843;8.272;0.001;0.434;1.000;
20200827_155429;0.182;4.834;8.612;0.024;0.398;0.798;
20200827_155429;0.452;7.403;7.269;0.033;0.030;0.162;
20200827_155430;1.702;6.242;7.966;0.013;0.134;0.393;
20200827_155430;1.231;5.562;7.072;-0.012;-0.321;-0.452;
20200827_155430;0.725;6.718;6.931;-0.038;-0.258;-0.144;
20200827_155430;0.014;5.693;7.290;0.004;0.337;0.953;
20200827_155430;-0.124;5.696;7.968;0.049;0.873;1.772;
20200827_155430;1.305;6.867;7.187;0.086;1.054;1.664;
20200827_155430;1.369;5.796;7.262;0.175;0.326;-0.067;
20200827_155430;-0.026;3.309;9.670;-0.003;-0.330;-0.940;
20200827_155430;0.790;4.381;8.368;0.122;-0.098;-0.137;
20200827_155431;1.046;5.978;7.618;0.156;0.197;0.549;
20200827_155431;0.666;4.424;8.665;0.109;0.565;1.192;
20200827_155431;1.235;7.508;8.327;0.185;0.834;1.558;
20200827_155431;1.537;5.528;8.040;0.289;0.769;1.264;
20200827_155431;1.765;5.952;7.740;0.306;0.592;0.637;
20200827_155431;0.977;4.956;7.525;0.275;0.321;0.000;
20200827_155431;0.393;5.741;8.569;0.195;0.504;0.384;
20200827_155431;0.536;4.300;8.078;0.185;0.690;0.680;
20200827_155431;2.928;2.816;6.510;0.229;0.092;-0.592;
20200827_155432;0.632;6.234;6.936;0.061;-0.355;-1.258;
20200827_155432;-0.182;6.302;7.013;0.037;-0.171;-0.761;
20200827_155432;2.763;7.329;6.814;0.044;-0.273;-0.905;
20200827_155432;0.867;6.694;5.435;0.001;-0.705;-1.733;
20200827_155432;-0.484;6.905;7.001;0.005;-0.956;-2.030;
20200827_155432;-2.375;6.630;5.337;-0.038;-0.676;-1.196;
20200827_155432;-3.862;2.143;8.815;0.173;-0.228;-0.474;
20200827_155432;-0.364;7.609;1.142;0.165;-0.232;-0.050;
20200827_155432;2.739;12.107;25.273;-0.333;-0.984;-0.980;
20200827_155432;-1.865;7.740;6.098;0.309;-0.266;-0.258;
20200827_155433;0.204;8.588;5.112;0.308;-0.008;0.336;
20200827_155433;1.827;9.074;8.167;0.034;-0.122;-0.209;
20200827_155433;-0.251;2.942;6.704;0.282;-0.649;-0.877;
20200827_155433;-6.294;16.929;3.572;0.301;-0.361;-0.058;
20200827_155433;-0.826;7.523;7.578;0.063;-0.749;-0.477;
20200827_155433;-0.261;6.634;6.771;0.060;-0.220;0.277;
20200827_155433;-1.221;6.840;6.572;0.013;0.122;0.892;
20200827_155433;-2.375;6.436;6.634;-0.042;0.451;1.451;
20200827_155433;-0.840;7.429;5.770;-0.017;0.519;1.420;
20200827_155434;1.245;7.436;5.966;-0.017;0.174;0.583;
20200827_155434;0.737;7.762;5.219;-0.003;0.133;0.411;
20200827_155434;-0.062;8.155;6.285;0.020;0.444;0.932;
20200827_155434;1.360;6.867;7.623;0.107;0.386;0.653;
20200827_155434;-1.176;5.732;7.324;0.171;0.614;0.972;
20200827_155434;0.254;8.047;7.391;0.252;0.835;1.276;
20200827_155434;2.871;1.777;11.554;0.170;0.468;0.467;
20200827_155434;1.243;8.758;5.021;0.226;0.545;0.458;
20200827_155434;0.874;6.191;8.033;0.261;0.546;0.399;
20200827_155434;2.466;6.821;5.590;0.204;0.377;-0.025;
20200827_155435;2.464;7.738;6.460;0.220;0.248;-0.544;
20200827_155435;-1.448;6.493;6.689;0.067;0.450;-0.127;
20200827_155435;-0.175;6.503;6.175;0.079;0.110;-0.334;
20200827_155435;1.676;6.871;6.342;0.080;-0.067;-0.613;
20200827_155435;1.073;5.911;10.005;-0.003;-0.139;-0.535;
20200827_155435;0.366;6.934;5.444;0.014;-0.105;-0.409;
20200827_155435;0.565;6.409;6.419;-0.033;-0.373;-0.782;
20200827_155435;-0.045;4.695;5.727;-0.044;-0.407;-0.688;
20200827_155435;-2.033;5.732;6.124;-0.109;-0.270;-0.171;
20200827_155436;-1.310;6.495;6.227;0.049;0.036;0.297;
20200827_155436;-0.639;5.911;7.592;0.001;0.178;0.472;
20200827_155436;0.888;6.900;7.635;0.064;0.101;0.191;
20200827_155436;0.711;5.691;5.602;0.051;-0.054;-0.394;
20200827_155436;-0.373;6.000;7.233;-0.042;-0.318;-0.841;
20200827_155436;-1.456;5.813;6.658;-0.001;-0.388;-0.578;
20200827_155436;-1.719;4.796;6.237;0.050;-0.283;-0.170;
20200827_155436;-0.622;6.249;7.810;0.071;-0.250;-0.015;
20200827_155436;-1.319;5.021;8.952;0.034;-0.110;0.255;
20200827_155437;-1.312;4.477;8.128;0.037;0.052;0.505;
20200827_155437;-0.594;3.953;8.775;-0.025;0.199;0.625;
20200827_155437;0.819;4.405;8.229;-0.008;0.242;0.470;
20200827_155437;0.615;5.650;7.829;0.006;0.039;-0.112;
20200827_155437;0.546;5.181;8.222;-0.007;-0.029;-0.257;
20200827_155437;0.005;5.104;8.035;-0.002;0.189;0.133;
20200827_155437;-0.108;5.260;8.262;-0.023;-0.047;-0.298;
20200827_155437;-0.117;7.475;6.067;0.001;-0.297;-0.610;
20200827_155437;-1.226;5.725;7.578;0.018;-0.445;-0.723;
20200827_155438;-1.116;4.422;8.356;0.025;-0.182;0.001;
20200827_155438;0.187;5.255;7.934;0.002;0.450;1.095;
20200827_155438;0.658;5.703;7.173;0.019;0.576;0.964;
20200827_155438;0.366;6.347;6.938;0.026;0.279;0.233;
20200827_155438;0.014;6.469;6.924;0.017;-0.108;-0.460;
20200827_155438;0.215;6.436;7.317;0.014;-0.321;-0.724;
20200827_155438;-0.136;5.737;7.554;0.004;-0.317;-0.594;
20200827_155438;-0.429;6.057;7.336;0.036;-0.224;-0.312;
20200827_155438;-0.797;6.246;7.259;0.026;-0.155;-0.133;
20200827_155438;-1.044;6.366;7.321;0.022;0.054;0.309;
20200827_155439;-0.292;6.342;7.111;0.029;0.181;0.583;
20200827_155439;-0.271;5.904;7.298;0.004;0.184;0.517;
20200827_155439;-0.476;5.813;7.575;0.011;0.564;1.130;
20200827_155439;-0.939;6.055;7.441;0.048;0.987;1.845;
20200827_155439;2.684;7.094;6.124;0.127;0.905;1.339;
20200827_155439;2.380;6.773;6.732;0.147;0.169;-0.264;
20200827_155439;0.864;5.602;7.597;0.063;-0.313;-1.139;
20200827_155439;-0.460;5.770;7.489;0.016;-0.207;-0.703;
20200827_155439;-0.431;6.184;7.168;-0.014;-0.079;-0.294;
20200827_155439;0.165;6.208;7.456;-0.012;-0.048;-0.079;
20200827_155440;0.809;6.378;6.953;0.005;0.037;-0.004;
20200827_155440;-0.079;6.273;7.269;-0.019;-0.195;-0.462;
20200827_155440;-0.618;6.558;7.245;-0.016;-0.269;-0.490;
20200827_155440;-0.565;5.847;7.618;0.011;-0.085;-0.084;
20200827_155440;-0.742;5.648;7.403;0.004;0.132;0.318;
20200827_155440;-0.555;6.510;7.140;-0.008;0.243;0.527;
20200827_155440;0.235;5.997;7.666;-0.015;0.126;0.270;
20200827_155440;0.086;5.974;7.185;0.002;0.084;0.098;
20200827_155440;-0.287;5.935;7.412;-0.001;-0.004;-0.130;
20200827_155441;-0.151;6.122;7.223;-0.001;-0.076;-0.197;
20200827_155441;-0.086;5.540;7.654;-0.001;-0.058;-0.155;
20200827_155441;0.347;6.129;7.424;-0.003;-0.103;-0.230;
20200827_155441;0.929;6.443;7.283;0.001;-0.376;-0.759;
20200827_155441;-0.012;6.677;6.886;0.018;-0.446;-0.935;
20200827_155441;-2.004;5.401;8.018;0.014;-0.307;-0.504;
20200827_155441;-1.013;5.899;7.544;0.021;-0.094;0.091;
20200827_155441;-1.135;6.577;7.973;-0.012;0.059;0.287;
20200827_155441;0.776;6.797;6.831;-0.005;0.068;0.137;
20200827_155441;-0.124;6.644;6.673;0.001;-0.076;-0.213;
20200827_155442;-2.100;6.146;7.312;0.006;-0.165;-0.213;
20200827_155442;-1.056;6.067;7.740;0.004;-0.101;0.086;
20200827_155442;-0.704;6.103;8.152;0.009;-0.028;0.233;
20200827_155442;0.596;6.067;7.226;0.003;0.192;0.633;
20200827_155442;-0.879;6.500;7.209;-0.007;0.167;0.486;
20200827_155442;-1.085;6.393;6.850;0.005;0.269;0.870;
20200827_155442;1.015;5.763;6.043;-0.002;0.378;1.036;
20200827_155442;1.128;7.214;7.314;0.003;0.304;0.729;
20200827_155442;1.051;7.321;5.945;0.020;0.231;0.486;
20200827_155443;1.101;6.907;7.542;0.058;0.140;0.273;
20200827_155443;1.853;6.524;7.056;0.017;-0.113;-0.122;
20200827_155443;0.946;6.883;6.541;0.017;0.039;0.292;
20200827_155443;1.422;7.930;6.694;0.052;0.245;0.694;
20200827_155443;2.105;7.111;5.748;0.099;0.263;0.461;
20200827_155443;0.354;8.612;5.588;0.162;0.388;0.600;
20200827_155443;3.136;7.954;6.105;0.203;0.512;0.595;
20200827_155443;3.314;7.230;5.418;0.256;0.334;-0.477;
20200827_155443;-2.550;4.966;7.647;0.098;-0.105;-0.893;
20200827_155443;-0.472;4.468;9.182;0.013;-0.006;0.079;
20200827_155444;-0.309;5.492;8.308;-0.014;0.368;0.603;
20200827_155444;0.845;7.037;5.466;0.039;0.252;0.378;
20200827_155444;1.168;6.998;7.044;0.041;0.278;0.171;
20200827_155444;1.482;7.408;6.227;0.054;0.068;-0.234;
20200827_155444;0.057;6.649;5.978;0.014;0.020;-0.278;
20200827_155444;0.608;7.807;6.986;0.003;0.200;0.124;
20200827_155444;-2.069;8.188;5.454;0.089;0.354;0.325;
20200827_155444;2.674;5.885;7.848;0.122;0.033;-0.310;
20200827_155444;1.777;4.551;6.831;0.061;-0.249;-0.719;
20200827_155445;0.565;6.687;5.047;-0.000;-0.210;-0.401;
20200827_155445;-1.135;6.938;7.606;-0.079;-0.125;-0.228;
20200827_155445;-0.666;7.329;7.077;-0.099;0.050;0.206;
20200827_155445;0.869;6.017;5.471;-0.020;0.137;0.327;
20200827_155445;1.714;7.171;7.278;0.003;-0.139;-0.348;
20200827_155445;1.920;6.634;4.183;0.019;-0.361;-0.675;
20200827_155445;-0.996;6.881;5.727;0.005;-0.089;-0.157;
20200827_155445;-0.991;5.770;8.715;-0.004;0.036;0.179;
20200827_155445;0.903;6.424;6.996;0.003;0.154;-0.032;
20200827_155445;0.646;7.240;6.692;0.046;-0.092;-0.514;
20200827_155446;0.340;7.506;8.143;0.011;-0.316;-0.676;
20200827_155446;-7.089;2.564;5.260;0.039;-0.154;-0.287;
20200827_155446;-1.822;7.985;8.004;-0.016;0.026;0.206;
20200827_155446;-1.041;7.982;6.239;-0.056;0.011;0.149;
20200827_155446;-1.951;7.326;6.675;-0.037;0.098;0.233;
20200827_155446;-0.419;6.196;7.721;0.008;-0.108;-0.203;
20200827_155446;-0.824;7.094;6.821;0.029;-0.247;-0.464;
20200827_155446;-1.494;6.364;5.521;0.060;-0.159;0.027;
20200827_155446;-0.857;7.396;4.274;0.052;-0.022;0.260;
20200827_155447;0.127;6.656;6.096;-0.029;-0.075;-0.026;
20200827_155447;2.071;7.135;5.691;-0.005;-0.037;-0.192;
20200827_155447;-0.230;6.132;9.421;-0.013;0.035;-0.226;
20200827_155447;1.566;7.664;5.205;0.083;-0.003;-0.319;
20200827_155447;0.376;5.756;5.346;0.044;-0.052;-0.524;
20200827_155447;0.553;7.934;7.003;0.070;-0.234;-0.699;
20200827_155447;-1.003;7.637;6.931;0.042;-0.144;-0.388;
20200827_155447;-2.047;7.020;5.547;0.070;-0.094;-0.116;
20200827_155447;0.529;4.918;9.522;0.038;-0.444;-0.531;
20200827_155447;0.124;6.050;9.237;0.072;-0.483;-0.245;
20200827_155448;-1.018;6.055;6.524;0.035;-0.272;0.293;
20200827_155448;0.405;6.122;4.820;-0.018;-0.364;0.096;
20200827_155448;0.101;6.656;4.951;0.002;-0.370;-0.037;
20200827_155448;-0.347;6.349;6.694;0.084;-0.064;0.473;
20200827_155448;0.931;6.541;9.000;0.004;-0.019;0.470;
20200827_155448;0.479;6.069;5.744;-0.004;-0.004;0.209;
20200827_155448;0.304;7.389;6.136;-0.072;0.091;0.280;
20200827_155448;0.596;7.415;3.656;-0.018;0.142;0.197;
20200827_155448;-0.567;6.675;7.204;-0.002;0.139;0.076;
20200827_155449;0.618;6.553;8.849;0.022;-0.160;-0.296;
20200827_155449;0.227;7.520;6.306;0.013;-0.175;-0.019;
20200827_155449;-0.038;5.868;4.302;0.020;-0.189;0.238;
20200827_155449;0.713;7.843;8.030;0.105;-0.097;0.272;
20200827_155449;-0.457;5.471;8.226;-0.059;0.105;0.505;
20200827_155449;-0.725;7.381;6.618;0.035;0.239;0.652;
20200827_155449;0.433;4.798;5.509;0.131;0.435;0.516;
20200827_155449;1.276;9.033;6.766;0.219;0.462;0.127;
20200827_155449;-1.398;7.477;5.212;0.044;0.467;-0.094;
20200827_155449;1.630;6.127;9.890;0.026;0.105;-0.356;
20200827_155450;-0.445;6.953;4.334;0.057;0.018;-0.352;
20200827_155450;0.132;6.981;4.472;-0.074;0.060;-0.029;
20200827_155450;-0.005;9.697;8.830;-0.032;-0.019;-0.161;
20200827_155450;2.291;3.948;13.477;-0.115;-0.016;-0.142;
20200827_155450;0.642;5.986;1.765;0.071;0.102;-0.063;
20200827_155450;-0.838;5.808;7.736;-0.038;0.128;0.152;
20200827_155450;-1.420;9.541;8.274;0.036;0.109;-0.005;
20200827_155450;0.259;7.013;8.533;0.054;0.050;0.110;
20200827_155450;0.318;6.821;6.826;0.065;-0.122;-0.234;
20200827_155451;-0.948;7.319;9.081;0.007;-0.125;0.025;
20200827_155451;0.024;5.552;8.849;-0.068;-0.131;0.211;
20200827_155451;0.742;6.160;9.835;0.047;-0.179;0.067;
20200827_155451;-1.489;5.590;6.802;-0.016;0.053;0.359;
20200827_155451;2.152;8.023;7.611;0.006;0.138;0.357;
20200827_155451;-0.721;6.972;10.338;-0.058;0.191;0.049;
20200827_155451;-0.594;5.246;8.509;-0.023;0.143;-0.094;
20200827_155451;2.619;6.402;7.736;0.001;-0.175;-0.340;
20200827_155451;-0.469;5.768;4.784;-0.000;-0.103;-0.164;
20200827_155451;0.433;5.090;5.725;0.050;-0.162;0.301;
20200827_155452;1.702;6.163;6.977;-0.031;-0.114;0.074;
20200827_155452;-0.644;5.073;5.210;-0.003;0.021;0.327;
20200827_155452;-0.469;7.242;8.157;0.007;0.210;0.399;
20200827_155452;-0.943;8.298;10.099;0.017;0.191;0.095;
20200827_155452;-1.628;7.130;10.927;-0.079;0.349;0.127;
20200827_155452;2.483;5.737;9.325;0.096;0.217;-0.279;
20200827_155452;1.243;6.206;5.131;0.012;0.042;-0.683;
20200827_155452;1.099;5.090;0.464;-0.060;-0.199;-0.608;
20200827_155452;0.874;5.629;2.248;-0.094;-0.182;-0.113;
20200827_155453;0.831;3.187;4.128;0.271;-0.075;0.192;
20200827_155453;-0.431;7.226;7.700;0.104;-0.006;0.223;
20200827_155453;0.347;7.496;10.149;-0.096;0.152;0.114;
20200827_155453;0.010;5.681;3.836;0.034;-0.028;0.068;
20200827_155453;1.276;4.796;7.688;0.031;-0.107;-0.152;
20200827_155453;0.318;5.679;3.565;0.069;-0.032;-0.040;
20200827_155453;2.516;5.875;4.020;-0.016;-0.108;0.002;
20200827_155453;1.448;5.918;6.960;-0.026;-0.145;-0.044;
20200827_155453;-0.960;5.940;6.807;0.024;-0.056;0.154;
20200827_155454;1.657;6.079;8.918;-0.019;0.013;0.114;
20200827_155454;-2.380;8.502;5.758;0.036;0.016;-0.093;
20200827_155454;-0.668;6.285;13.182;-0.068;0.095;0.192;
20200827_155454;0.814;7.484;9.088;0.078;-0.151;-0.265;
20200827_155454;0.251;6.555;7.621;0.041;-0.086;0.016;
20200827_155454;0.915;6.328;7.159;-0.019;-0.124;-0.018;
20200827_155454;-0.498;6.675;6.979;0.041;-0.092;0.163;
20200827_155454;-1.207;5.267;6.280;0.007;0.043;0.289;
20200827_155454;0.895;6.103;5.588;0.028;0.114;0.178;
20200827_155454;-1.551;8.133;8.734;0.089;0.086;-0.033;
20200827_155455;-0.927;5.856;8.796;-0.002;0.153;0.109;
20200827_155455;0.788;5.837;6.850;-0.004;-0.035;-0.217;
20200827_155455;-0.350;4.554;2.741;-0.011;0.004;-0.037;
20200827_155455;3.462;5.401;2.636;-0.050;-0.111;-0.183;
20200827_155455;0.098;5.626;8.799;-0.012;-0.114;-0.215;
20200827_155455;-0.302;6.282;7.415;-0.007;-0.104;-0.091;
20200827_155455;-0.043;8.265;9.771;0.031;-0.025;0.270;
20200827_155455;-2.009;6.486;3.637;0.081;-0.008;0.151;
20200827_155455;-1.652;4.743;4.166;-0.047;0.137;0.337;
20200827_155456;3.199;5.650;3.792;0.013;-0.105;-0.115;
20200827_155456;-1.547;5.234;5.880;0.005;-0.007;0.302;
20200827_155456;3.201;5.823;1.832;0.097;0.062;0.124;
20200827_155456;1.441;5.294;3.926;-0.175;-0.021;-0.122;
20200827_155456;3.539;12.194;13.534;-0.239;0.149;0.243;
20200827_155456;-1.458;2.777;8.918;0.243;0.414;0.330;
20200827_155456;3.637;12.579;-1.130;0.348;0.130;-0.122;
20200827_155456;-2.162;6.948;4.216;0.028;0.084;-0.165;
20200827_155456;0.189;7.937;9.309;0.149;-0.157;-0.231;
20200827_155457;0.651;5.488;8.068;-0.007;-0.042;0.265;
20200827_155457;0.457;5.279;4.779;-0.278;-0.043;0.090;
20200827_155457;1.547;-2.234;-16.257;-0.236;0.140;0.237;
20200827_155457;2.133;22.156;7.578;0.510;0.330;0.460;
20200827_155457;-5.241;-6.402;12.040;0.055;0.385;-0.282;
20200827_155457;0.941;3.105;3.196;-0.125;0.018;-0.553;
20200827_155457;1.365;6.474;11.586;-0.080;-0.268;-0.504;
20200827_155457;-2.162;6.445;6.601;0.096;-0.160;-0.182;
20200827_155457;-0.326;9.280;7.724;0.050;-0.238;0.119;
20200827_155457;-2.413;7.479;10.048;0.026;-0.019;0.350;
20200827_155458;1.166;5.045;8.708;-0.092;0.006;0.336;
20200827_155458;0.395;2.411;-8.612;0.330;0.159;-0.204;
20200827_155458;3.189;17.691;10.060;-0.421;-0.031;0.042;
20200827_155458;0.402;4.717;5.957;0.068;-0.110;0.023;
20200827_155458;0.168;-3.144;-5.152;-0.288;-0.332;-0.086;
20200827_155458;-0.548;9.098;14.538;-0.224;0.131;0.133;
20200827_155458;-5.674;10.482;13.285;-0.093;0.230;0.532;
20200827_155458;2.215;2.263;4.820;-0.372;-0.016;0.306;
20200827_155458;-1.573;4.238;8.930;0.090;0.230;-0.021;
20200827_155459;2.018;5.155;1.116;0.106;0.226;-0.143;
20200827_155459;1.968;5.930;9.397;-0.009;-0.141;-0.315;
20200827_155459;-1.650;7.645;3.043;0.080;-0.068;-0.367;
20200827_155459;1.549;4.499;4.161;-0.043;-0.166;-0.153;
20200827_155459;-0.903;5.365;6.021;-0.063;-0.149;-0.229;
20200827_155459;1.147;7.537;4.846;0.035;0.033;0.313;
20200827_155459;-0.251;4.238;6.084;-0.024;0.036;0.127;
20200827_155459;2.148;7.384;7.037;0.073;-0.098;-0.139;
20200827_155459;1.583;5.397;5.167;-0.010;-0.052;-0.045;
20200827_155500;0.716;9.701;9.515;0.069;-0.075;-0.212;
20200827_155500;0.010;4.707;5.155;0.111;-0.160;-0.229;
20200827_155500;0.316;5.696;3.677;0.131;-0.225;0.027;
20200827_155500;0.479;7.671;8.004;0.028;-0.176;0.079;
20200827_155500;1.001;6.419;5.456;-0.171;-0.067;0.207;
20200827_155500;0.776;6.579;5.217;-0.005;-0.030;0.227;
20200827_155500;0.029;6.852;11.894;-0.068;0.108;0.029;
20200827_155500;-1.202;9.337;8.571;0.091;0.134;-0.015;
20200827_155500;-1.080;4.381;5.262;0.050;-0.045;-0.325;
20200827_155500;0.479;5.523;12.246;-0.067;-0.064;-0.152;
20200827_155501;-0.845;5.234;-0.074;-0.048;-0.169;-0.173;
20200827_155501;2.167;7.508;9.328;-0.049;-0.228;-0.097;
20200827_155501;0.113;8.260;6.601;0.026;-0.254;0.021;
20200827_155501;-1.580;9.079;13.704;-0.060;-0.081;0.318;
20200827_155501;0.132;5.104;2.682;-0.067;-0.107;0.307;
20200827_155501;-0.022;5.411;6.436;0.030;0.062;0.264;
20200827_155501;0.778;7.685;4.089;0.083;0.054;0.180;
20200827_155501;-0.876;5.133;6.941;-0.038;0.125;0.147;
20200827_155501;-1.123;8.001;8.179;0.097;-0.085;-0.391;
20200827_155502;0.168;4.621;5.124;-0.031;-0.070;-0.142;
20200827_155502;0.692;7.195;9.428;-0.087;-0.126;0.156;
20200827_155502;1.389;8.509;23.083;-0.078;-0.101;0.100;
20200827_155502;-1.118;3.256;11.090;-0.151;-0.005;0.363;
20200827_155502;-1.477;8.253;12.689;-0.077;0.201;0.565;
20200827_155502;0.215;7.412;1.209;0.151;0.345;0.489;
20200827_155502;2.191;3.847;-5.284;0.144;0.369;-0.152;
20200827_155502;2.660;7.805;8.119;-0.319;0.001;-0.859;
20200827_155502;0.833;7.736;7.891;0.204;-0.157;-0.563;
20200827_155502;2.789;13.166;-3.132;0.070;-0.261;-0.168;
20200827_155503;-0.089;8.061;7.295;-0.111;-0.207;0.134;
20200827_155503;-0.611;7.015;6.033;0.080;-0.249;0.298;
20200827_155503;-0.026;4.750;5.686;-0.207;-0.243;0.398;
20200827_155503;0.972;8.229;23.978;-0.064;0.120;0.509;
20200827_155503;0.857;-3.790;-7.484;0.360;0.347;0.481;
20200827_155503;1.226;-1.951;8.332;-0.203;0.289;-0.240;
20200827_155503;1.022;9.491;7.788;0.024;0.178;-0.077;
20200827_155503;0.661;10.594;12.258;0.030;0.389;0.100;
20200827_155503;-2.883;4.942;5.473;-0.010;0.105;-0.253;
20200827_155504;1.369;7.424;9.175;-0.098;-0.053;-0.033;
20200827_155504;0.539;5.447;2.109;-0.008;0.093;0.066;
20200827_155504;-0.984;7.626;13.455;0.005;0.094;-0.018;
20200827_155504;1.504;8.667;6.680;-0.010;-0.077;-0.351;
20200827_155504;0.814;4.020;4.022;-0.077;0.059;-0.021;
20200827_155504;-0.187;7.693;9.299;0.007;0.073;0.143;
20200827_155504;1.597;7.233;6.292;0.008;0.059;-0.133;
20200827_155504;-0.833;9.459;11.799;0.008;0.051;-0.023;
20200827_155504;0.290;7.298;5.729;0.069;0.181;-0.004;
20200827_155504;0.285;7.190;6.776;0.028;0.053;-0.117;
20200827_155505;1.441;3.098;5.308;0.017;-0.070;-0.228;
20200827_155505;-0.031;9.158;9.792;0.062;-0.008;-0.358;
20200827_155505;0.093;7.171;8.717;0.040;-0.169;-0.194;
20200827_155505;-0.912;8.224;8.428;-0.011;-0.137;-0.010;
20200827_155505;-0.668;7.568;7.740;0.033;-0.217;-0.010;
20200827_155505;-0.699;5.183;6.807;-0.066;-0.072;0.212;
20200827_155505;0.283;6.397;3.697;0.034;-0.025;0.286;
20200827_155505;-0.378;3.239;2.610;-0.023;0.237;0.417;
20200827_155505;3.697;8.274;9.088;0.006;0.063;-0.264;
20200827_155506;-0.486;6.218;8.183;-0.015;0.100;-0.251;
20200827_155506;0.776;3.996;6.249;-0.029;-0.016;-0.152;
20200827_155506;0.970;4.973;4.082;0.018;-0.122;-0.205;
20200827_155506;-1.085;7.116;6.677;0.042;-0.069;-0.021;
20200827_155506;-2.107;7.274;5.763;0.082;0.039;0.146;
20200827_155506;0.821;6.977;7.266;-0.060;-0.055;0.061;
20200827_155506;0.970;6.474;9.943;0.023;-0.074;-0.292;
20200827_155506;-0.682;5.950;10.865;0.044;0.001;0.073;
20200827_155506;-1.702;3.144;3.223;-0.029;0.054;0.167;
20200827_155506;1.302;7.535;9.239;-0.019;-0.079;0.000;
20200827_155507;0.110;5.555;7.499;-0.032;-0.012;0.074;
20200827_155507;0.567;6.761;8.655;-0.047;-0.002;0.020;
20200827_155507;-1.374;5.157;5.279;-0.030;0.056;0.098;
20200827_155507;0.630;7.084;10.048;-0.015;0.040;-0.002;
20200827_155507;0.699;6.048;10.563;-0.056;0.067;0.007;
20200827_155507;0.505;4.276;6.857;0.047;0.053;-0.176;
20200827_155507;-1.140;6.773;7.377;-0.017;0.053;-0.139;
20200827_155507;-0.560;6.304;4.061;0.019;0.001;-0.117;
20200827_155507;0.879;9.155;11.205;-0.028;-0.022;-0.003;
20200827_155508;-0.441;6.778;8.267;0.018;0.044;0.081;
20200827_155508;0.821;5.502;7.056;0.045;0.033;-0.078;
20200827_155508;-1.015;7.460;4.693;-0.030;0.050;-0.104;
20200827_155508;0.893;5.866;9.294;-0.012;-0.268;-0.591;
20200827_155508;-0.196;6.393;7.250;0.049;-0.211;-0.199;
20200827_155508;1.951;5.291;4.676;-0.004;-0.299;-0.232;
20200827_155508;-1.688;10.089;10.271;0.048;-0.552;-0.206;
20200827_155508;1.176;7.230;18.115;0.013;-0.441;0.419;
20200827_155508;-2.739;5.066;6.891;0.031;0.021;1.049;
20200827_155509;0.390;1.525;4.152;-0.151;0.061;0.579;
20200827_155509;0.338;6.558;11.825;-0.001;0.093;0.224;
20200827_155509;0.330;5.327;5.107;0.064;0.356;0.444;
20200827_155509;-0.254;7.156;2.140;0.056;0.220;0.016;
20200827_155509;0.776;9.062;10.360;-0.040;0.055;-0.246;
20200827_155509;-0.936;4.676;4.096;-0.048;-0.039;-0.058;
20200827_155509;0.000;8.533;7.161;0.007;-0.030;0.119;
20200827_155509;-0.124;7.432;7.685;0.055;0.005;0.238;
20200827_155509;2.878;4.276;5.430;0.042;0.057;0.164;
20200827_155509;-0.510;7.089;5.229;0.087;0.201;0.310;
20200827_155510;0.790;5.387;5.344;0.023;0.182;0.113;
20200827_155510;0.821;10.171;9.603;0.029;0.334;0.183;
20200827_155510;1.915;5.950;4.599;0.012;0.282;-0.124;
20200827_155510;0.012;6.785;7.714;0.029;0.209;-0.302;
20200827_155510;0.407;8.294;7.769;-0.012;0.176;-0.187;
20200827_155510;-0.086;3.747;5.200;-0.024;0.073;-0.345;
20200827_155510;0.855;6.541;7.781;-0.040;-0.018;-0.282;
20200827_155510;0.405;6.393;7.178;0.007;-0.055;-0.334;
20200827_155510;1.147;5.210;7.542;0.014;-0.232;-0.297;
20200827_155510;-0.175;6.402;7.968;0.012;-0.151;-0.093;
20200827_155511;0.857;7.520;7.755;0.003;-0.178;-0.080;
20200827_155511;-0.105;5.100;9.388;-0.044;-0.113;-0.047;
20200827_155511;-1.678;4.776;6.381;0.007;-0.060;0.147;
20200827_155511;0.172;6.656;6.847;-0.004;0.003;0.274;
20200827_155511;0.510;6.697;6.778;-0.019;0.050;0.080;
20200827_155511;1.331;6.517;7.314;-0.024;-0.082;-0.170;
20200827_155511;-0.390;5.926;6.644;0.009;-0.005;0.084;
20200827_155511;-0.079;7.099;7.858;0.009;-0.031;0.042;
20200827_155511;-0.089;7.882;7.314;0.045;-0.049;-0.130;
20200827_155512;-0.656;8.957;10.386;0.033;-0.116;-0.040;
20200827_155512;-0.316;6.062;7.369;0.020;-0.045;0.124;
20200827_155512;1.259;7.063;9.000;-0.014;-0.054;0.020;
20200827_155512;0.357;2.586;4.307;-0.037;-0.014;-0.036;
20200827_155512;-0.682;5.995;6.493;-0.025;-0.027;0.108;
20200827_155512;1.159;7.219;4.664;0.008;-0.012;0.101;
20200827_155512;0.012;8.399;10.573;-0.035;0.130;0.203;
20200827_155512;-0.678;5.875;4.741;-0.025;0.198;0.220;
20200827_155512;1.786;6.742;7.005;0.003;0.083;-0.176;
20200827_155513;0.232;5.179;6.299;-0.041;-0.009;-0.236;
20200827_155513;-0.596;9.680;8.684;0.042;-0.127;-0.297;
20200827_155513;-0.429;5.641;7.496;0.015;-0.140;0.005;
20200827_155513;0.115;6.165;5.552;0.026;-0.080;0.166;
20200827_155513;2.073;4.499;3.960;0.028;-0.070;0.117;
20200827_155513;0.053;6.630;7.817;0.051;0.037;0.050;
20200827_155513;-0.359;5.658;8.574;0.012;0.014;0.100;
20200827_155513;1.501;3.903;5.464;0.039;0.132;0.239;
20200827_155513;-0.613;7.065;9.163;-0.000;0.167;0.030;
20200827_155513;0.065;6.359;6.213;-0.017;0.116;-0.202;
20200827_155514;0.007;5.708;8.487;-0.062;-0.033;-0.316;
20200827_155514;0.409;4.183;6.869;-0.028;-0.049;-0.110;
20200827_155514;-0.283;6.682;6.369;0.013;-0.058;-0.045;
20200827_155514;-0.472;7.022;5.274;0.057;-0.173;0.051;
20200827_155514;0.702;8.487;9.072;0.017;-0.090;0.230;
20200827_155514;1.018;5.143;4.707;0.041;0.056;0.328;
20200827_155514;1.539;7.616;7.183;0.048;0.218;0.147;
20200827_155514;0.366;3.778;6.155;0.030;0.037;-0.146;
20200827_155514;0.888;9.443;8.758;0.008;0.115;-0.002;
20200827_155515;0.019;6.539;7.266;-0.029;0.047;-0.089;
20200827_155515;0.354;8.219;8.097;-0.045;0.043;-0.093;
20200827_155515;-0.333;2.670;5.607;-0.047;0.024;-0.056;
20200827_155515;1.231;6.412;7.563;-0.058;-0.023;-0.040;
20200827_155515;0.998;6.843;6.371;-0.019;-0.114;-0.186;
20200827_155515;-0.081;7.238;8.921;0.040;-0.160;-0.101;
20200827_155515;-0.558;6.857;6.266;0.003;-0.113;0.181;
20200827_155515;0.120;6.519;6.088;0.006;-0.088;0.126;
20200827_155515;-0.788;5.485;9.572;0.017;0.078;0.290;
20200827_155515;0.311;4.535;5.241;0.064;0.171;0.266;
20200827_155516;-0.709;6.057;7.230;0.024;0.268;0.142;
20200827_155516;0.460;5.454;5.550;0.001;0.189;-0.203;
20200827_155516;1.666;10.154;9.543;-0.015;0.056;-0.416;
20200827_155516;-0.654;5.329;9.038;-0.036;0.047;-0.204;
20200827_155516;0.436;7.312;9.222;-0.050;-0.057;-0.291;
20200827_155516;0.460;2.892;4.793;0.058;-0.150;-0.218;
20200827_155516;-0.218;5.725;7.082;-0.010;-0.082;-0.095;
20200827_155516;-0.208;7.010;5.535;0.053;-0.220;-0.231;
20200827_155516;1.140;8.794;9.697;-0.014;-0.173;-0.044;
20200827_155517;-1.077;3.242;4.992;0.037;-0.054;0.112;
20200827_155517;0.974;5.658;7.269;0.062;-0.074;0.058;
20200827_155517;-0.874;4.214;7.307;-0.032;-0.077;-0.040;
20200827_155517;0.007;8.025;7.690;0.040;-0.098;0.070;
20200827_155517;0.220;5.940;7.211;-0.014;-0.073;-0.007;
20200827_155517;0.826;5.734;9.902;-0.066;-0.110;-0.062;
20200827_155517;-0.074;2.720;3.984;-0.041;-0.060;-0.022;
20200827_155517;0.144;5.480;8.052;-0.015;-0.123;0.040;
20200827_155517;0.158;5.488;5.844;0.038;-0.120;0.029;
20200827_155517;0.668;3.994;3.165;0.035;-0.154;0.127;
20200827_155518;-0.007;6.084;7.266;-0.060;0.011;0.252;
20200827_155518;-0.017;7.477;5.411;-0.004;-0.067;0.241;
20200827_155518;0.297;8.351;6.155;0.053;0.075;0.200;
20200827_155518;0.790;7.527;6.577;-0.041;0.059;0.129;
20200827_155518;0.036;8.344;9.586;0.042;0.037;0.145;
20200827_155518;1.039;8.705;14.073;-0.064;0.020;0.121;
20200827_155518;1.374;2.538;4.755;-0.078;0.036;0.105;
20200827_155518;-0.407;7.214;5.464;0.086;0.079;0.232;
20200827_155518;1.202;8.310;12.452;0.030;0.131;0.194;
20200827_155519;1.058;2.890;3.328;0.070;0.047;0.002;
20200827_155519;0.175;5.543;4.398;0.019;0.180;0.118;
20200827_155519;-0.201;4.968;3.718;0.103;0.122;0.055;
20200827_155519;1.243;8.583;7.903;0.083;0.078;0.001;
20200827_155519;-1.341;6.922;5.895;0.016;0.120;0.141;
20200827_155519;1.247;8.061;10.786;-0.089;-0.002;0.082;
20200827_155519;-0.043;4.101;5.406;0.132;0.245;0.145;
20200827_155519;-0.177;5.995;5.830;0.046;0.081;-0.186;
20200827_155519;0.036;6.658;5.823;0.039;0.002;-0.136;
20200827_155520;-0.005;9.699;7.819;0.056;0.088;0.181;
20200827_155520;1.389;7.946;7.839;0.074;0.149;0.039;
20200827_155520;-0.098;6.452;7.037;0.003;0.065;-0.246;
20200827_155520;-0.153;6.165;10.254;0.047;0.110;-0.089;
20200827_155520;-0.108;4.659;4.583;0.023;0.089;-0.008;
20200827_155520;-0.510;5.289;5.847;0.038;0.089;-0.070;
20200827_155520;-0.998;5.148;4.401;-0.025;0.070;-0.018;
20200827_155520;-0.500;4.061;4.041;0.073;0.062;-0.065;
20200827_155520;0.342;8.739;10.036;0.081;0.024;-0.188;
20200827_155520;1.726;2.631;9.189;0.164;-0.189;-0.493;
20200827_155521;-3.393;11.298;4.123;0.115;0.006;0.158;
20200827_155521;1.185;5.945;4.925;0.052;-0.098;-0.114;
20200827_155521;0.989;6.395;1.731;0.028;-0.088;-0.054;
20200827_155521;-1.085;7.254;10.417;0.006;0.016;0.183;
20200827_155521;1.197;5.516;7.695;-0.032;0.052;-0.062;
20200827_155521;0.543;9.067;10.135;-0.041;0.192;0.094;
20200827_155521;1.271;4.496;8.550;0.074;-0.010;-0.382;
20200827_155521;-2.492;6.450;5.286;-0.031;0.062;-0.112;
20200827_155521;0.860;5.763;4.978;0.021;-0.117;-0.241;
20200827_155522;1.496;8.435;7.228;0.071;-0.144;-0.220;
20200827_155522;-0.113;8.456;5.325;-0.038;-0.241;-0.201;
20200827_155522;0.206;6.991;9.668;0.056;-0.010;0.345;
20200827_155522;2.988;7.331;0.292;0.011;-0.046;0.081;
20200827_155522;1.300;6.275;8.669;0.034;-0.005;-0.045;
20200827_155522;-0.057;6.163;8.827;-0.026;-0.002;-0.213;
20200827_155522;1.697;8.744;8.528;-0.077;-0.051;-0.168;
20200827_155522;-0.747;4.927;4.942;-0.020;-0.102;-0.105;
20200827_155522;-1.784;7.274;7.290;0.055;-0.019;0.176;
20200827_155523;-0.749;6.857;10.870;0.053;-0.111;-0.016;
20200827_155523;0.546;4.808;4.702;0.036;-0.051;0.202;
20200827_155523;1.010;6.747;5.136;0.029;-0.129;-0.104;
20200827_155523;-1.410;5.499;9.816;0.041;0.020;0.117;
20200827_155523;1.638;4.089;5.636;0.031;-0.002;0.097;
20200827_155523;-2.279;5.595;8.705;-0.008;0.164;0.031;
20200827_155523;1.245;5.250;8.624;-0.007;0.109;-0.048;
20200827_155523;0.290;3.843;12.012;0.038;0.181;-0.238;
20200827_155523;-0.148;6.701;7.386;0.014;-0.013;-0.414;
20200827_155524;-1.870;3.472;8.799;-0.111;-0.188;-0.187;
20200827_155524;-0.783;6.955;7.896;0.088;-0.147;0.082;
20200827_155524;0.536;7.518;4.633;0.008;-0.223;-0.010;
20200827_155524;-0.630;7.621;19.860;-0.036;-0.085;0.191;
20200827_155524;-0.680;7.264;7.448;0.263;-0.005;0.189;
20200827_155524;-1.006;11.205;7.465;-0.247;-0.103;0.314;
20200827_155524;0.275;-1.539;9.862;-0.650;0.133;0.189;
20200827_155524;2.222;6.160;10.702;-0.221;0.133;-0.038;
20200827_155524;-2.116;6.778;11.207;-0.116;-0.051;-0.049;
20200827_155524;-1.154;7.472;9.237;-0.007;-0.045;-0.034;
20200827_155525;-1.769;4.068;5.375;-0.041;0.033;0.228;
20200827_155525;0.448;5.799;9.361;0.023;-0.069;0.063;
20200827_155525;-0.464;7.547;7.508;0.035;0.060;0.211;
20200827_155525;-0.742;6.879;11.308;-0.046;0.069;0.268;
20200827_155525;1.355;5.394;6.725;-0.030;0.056;0.083;
20200827_155525;1.099;5.643;8.384;-0.012;0.057;-0.002;
20200827_155525;-0.618;5.064;2.772;0.082;0.114;-0.034;
20200827_155525;0.177;6.744;8.133;0.026;0.030;0.026;
20200827_155525;0.285;6.242;6.929;0.012;0.003;-0.025;
20200827_155526;-1.250;6.383;2.933;0.122;0.089;0.067;
20200827_155526;-0.512;6.225;8.162;-0.003;0.061;0.193;
20200827_155526;0.924;5.042;6.469;-0.044;0.046;0.090;
20200827_155526;1.970;3.965;4.106;0.142;0.091;0.089;
20200827_155526;-0.816;7.563;7.762;-0.013;0.099;0.000;
20200827_155526;1.678;5.708;3.292;0.070;0.046;-0.217;
20200827_155526;1.140;8.061;6.713;0.069;-0.005;-0.042;
20200827_155526;-0.072;7.286;7.717;-0.021;0.059;-0.053;
20200827_155526;0.769;6.048;5.758;-0.002;-0.045;-0.040;
20200827_155526;-0.766;7.144;3.096;-0.011;0.021;0.089;
20200827_155527;1.647;7.230;7.355;0.023;0.078;0.161;
20200827_155527;-0.017;6.194;8.633;-0.033;0.011;-0.088;
20200827_155527;0.388;7.494;4.142;-0.052;0.001;-0.090;
20200827_155527;-0.127;6.452;7.432;-0.050;-0.049;-0.139;
20200827_155527;-0.283;5.598;6.337;-0.003;-0.015;-0.006;
20200827_155527;0.673;7.750;9.175;0.018;-0.112;-0.057;
20200827_155527;1.590;3.622;6.797;-0.007;-0.113;-0.019;
20200827_155527;-0.986;6.768;8.004;0.039;-0.037;0.026;
20200827_155527;1.034;8.006;11.243;0.039;-0.075;0.209;
20200827_155528;-0.555;5.578;5.533;0.037;0.071;0.301;
20200827_155528;0.400;7.661;7.934;0.023;0.136;0.180;
20200827_155528;0.443;7.630;7.824;-0.048;0.029;-0.146;
20200827_155528;0.539;7.154;9.048;-0.065;0.024;-0.155;
20200827_155528;0.251;6.184;5.265;0.042;-0.151;-0.087;
20200827_155528;-0.256;7.314;9.917;-0.019;-0.079;0.150;
20200827_155528;1.812;7.750;6.586;-0.043;-0.112;0.012;
20200827_155528;-0.800;6.598;7.065;-0.014;0.178;0.191;
20200827_155528;-0.010;7.307;11.250;-0.001;0.009;0.129;
20200827_155529;1.427;4.906;7.173;0.114;0.088;0.142;
20200827_155529;0.874;6.790;7.853;-0.009;0.100;-0.093;
20200827_155529;1.123;7.839;8.389;0.014;0.096;-0.083;
20200827_155529;-0.658;6.419;8.018;0.051;-0.003;-0.085;
20200827_155529;0.019;6.263;5.234;0.070;-0.051;-0.022;
20200827_155529;0.570;5.583;7.626;-0.047;-0.146;-0.061;
20200827_155529;-0.536;6.129;6.218;-0.010;-0.064;0.186;
20200827_155529;0.160;8.138;5.104;0.051;-0.038;0.123;
20200827_155529;-0.338;4.573;4.750;0.069;0.126;0.224;
20200827_155530;0.215;6.780;4.465;0.029;0.088;0.155;
20200827_155530;1.468;6.373;5.827;-0.025;0.193;-0.063;
20200827_155530;0.309;4.626;4.156;-0.009;0.076;-0.343;
20200827_155530;-0.996;8.250;6.486;-0.105;0.033;-0.160;
20200827_155530;-0.304;6.129;6.515;0.051;-0.086;-0.063;
20200827_155530;-0.242;6.622;3.788;0.079;0.038;-0.019;
20200827_155530;-0.613;6.919;4.949;0.071;-0.024;0.096;
20200827_155530;1.822;6.699;5.760;0.007;-0.084;-0.041;
20200827_155530;0.261;6.637;10.168;-0.028;-0.036;-0.084;
20200827_155530;-0.414;4.714;5.203;0.053;-0.043;0.011;
20200827_155531;0.632;8.344;7.381;0.067;0.008;0.099;
20200827_155531;0.615;4.671;10.065;0.030;0.061;-0.089;
20200827_155531;-1.501;7.429;2.847;0.016;0.101;-0.068;
20200827_155531;0.390;5.782;8.042;0.001;-0.014;-0.098;
20200827_155531;0.273;7.932;12.728;-0.030;-0.091;-0.154;
20200827_155531;0.737;4.784;4.585;0.133;-0.212;-0.075;
20200827_155531;-0.733;6.606;8.389;-0.048;-0.235;0.134;
20200827_155531;0.752;7.906;9.833;0.029;-0.108;0.245;
20200827_155531;0.017;4.803;8.885;0.056;-0.024;0.181;
20200827_155532;-0.680;6.345;10.032;0.021;0.091;0.163;
20200827_155532;-0.031;8.806;2.734;-0.018;0.128;0.196;
20200827_155532;1.882;7.417;6.230;-0.037;0.222;0.138;
20200827_155532;1.144;5.997;4.324;-0.024;0.143;-0.251;
20200827_155532;-0.141;7.956;3.558;-0.028;-0.111;-0.266;
20200827_155532;0.579;6.730;6.682;0.005;0.010;-0.025;
20200827_155532;0.132;6.469;4.884;-0.015;-0.027;-0.037;
20200827_155532;1.899;5.662;4.932;0.098;-0.101;-0.080;
20200827_155532;-0.043;6.292;9.275;-0.013;-0.038;-0.064;
20200827_155532;0.096;5.619;9.373;0.044;-0.024;-0.039;
20200827_155533;-0.321;5.904;7.326;0.135;-0.036;0.069;
20200827_155533;-0.072;6.203;9.038;-0.067;0.128;0.114;
20200827_155533;-0.936;7.815;4.386;-0.010;0.079;-0.017;
20200827_155533;-0.359;5.428;9.120;-0.049;-0.089;-0.077;
20200827_155533;-0.232;7.362;6.246;0.040;0.028;0.059;
20200827_155533;0.230;4.889;6.495;0.089;-0.035;-0.017;
20200827_155533;1.233;8.066;8.179;-0.099;-0.054;0.031;
20200827_155533;1.681;6.670;5.732;-0.027;-0.096;-0.182;
20200827_155533;-1.571;3.905;7.456;0.030;0.001;0.021;
20200827_155533;-0.057;6.996;8.746;-0.016;-0.098;0.155;
20200827_155534;0.649;5.545;4.439;0.073;0.021;0.094;
20200827_155534;-1.539;5.217;5.655;-0.047;0.014;0.049;
20200827_155534;-1.199;5.753;2.081;0.049;0.089;0.186;
20200827_155534;0.764;8.483;9.414;0.007;-0.009;0.098;
20200827_155534;-1.824;9.273;6.340;0.149;0.052;0.041;
20200827_155534;-0.668;5.183;7.791;-0.035;0.019;0.177;
20200827_155534;1.384;7.685;6.764;-0.047;0.056;0.073;
20200827_155534;0.481;6.610;6.448;-0.011;0.120;0.048;
20200827_155534;0.077;7.805;8.732;0.066;0.096;-0.003;
20200827_155535;1.314;4.266;7.752;0.080;0.161;-0.096;
20200827_155535;-1.932;4.334;5.121;0.044;0.122;-0.193;
20200827_155535;-0.122;8.147;18.067;-0.029;-0.061;-0.164;
20200827_155535;1.188;9.946;27.687;-0.175;-0.075;-0.058;
20200827_155535;-1.279;2.998;3.103;0.169;0.114;0.191;
20200827_155535;1.154;5.394;10.116;-0.103;-0.053;-0.265;
20200827_155535;-0.005;9.749;6.510;-0.065;-0.036;0.117;
20200827_155535;1.092;6.024;8.380;-0.044;-0.081;-0.003;
20200827_155535;-3.223;5.341;7.915;0.088;0.087;0.195;
20200827_155535;-0.113;5.899;7.149;0.079;0.180;0.257;
20200827_155536;1.815;5.653;5.502;-0.016;0.014;-0.315;
20200827_155536;-0.874;7.051;3.666;0.082;-0.021;-0.318;
20200827_155536;-2.581;4.695;13.338;-0.029;-0.095;0.146;
20200827_155536;0.840;3.934;7.372;-0.160;-0.156;0.049;
20200827_155536;0.690;5.466;16.281;0.204;-0.108;0.215;
20200827_155536;-0.388;16.795;26.456;-0.038;-0.000;0.009;
20200827_155536;2.090;0.591;12.790;-0.293;-0.218;-0.114;
20200827_155536;2.105;29.166;5.114;-0.380;-0.055;0.315;
20200827_155536;-0.690;34.024;10.326;0.987;0.181;0.373;
20200827_155537;0.996;2.574;6.270;0.077;0.287;-0.298;
20200827_155537;-2.116;6.450;7.637;-0.068;0.310;0.015;
20200827_155537;-0.242;5.028;9.665;-0.163;0.099;-0.411;
20200827_155537;-0.627;5.885;7.566;-0.020;0.124;-0.488;
20200827_155537;1.518;7.822;0.397;-0.005;-0.098;-0.401;
20200827_155537;2.911;8.938;3.994;-0.108;-0.141;-0.326;
20200827_155537;-1.602;7.635;6.864;0.028;-0.020;-0.142;
20200827_155537;-0.821;4.882;3.565;0.087;-0.028;-0.044;
20200827_155537;1.709;8.837;4.125;0.093;-0.119;-0.248;
20200827_155537;1.015;5.059;8.454;-0.014;0.029;-0.210;
20200827_155538;0.093;7.918;9.905;-0.036;-0.082;-0.586;
20200827_155538;-1.633;5.313;-6.517;0.131;-0.277;-0.298;
20200827_155538;-0.134;9.558;-2.871;-1.332;0.239;0.477;
20200827_155538;-3.668;27.572;-1.144;0.896;-0.257;0.042;
20200827_155538;-1.499;10.032;9.397;-0.021;-0.236;0.509;
20200827_155538;1.561;6.390;3.213;-0.044;-0.333;-0.117;
20200827_155538;-0.101;7.453;3.002;0.135;-0.191;0.163;
20200827_155538;1.070;5.748;4.997;0.021;-0.180;0.314;
20200827_155538;-0.766;4.525;6.472;-0.054;-0.067;0.115;
20200827_155539;-1.779;6.713;8.193;0.033;-0.015;0.167;
20200827_155539;-0.407;7.647;11.971;-0.113;-0.076;0.177;
20200827_155539;0.996;7.008;6.833;0.019;-0.085;0.158;
20200827_155539;-0.745;5.523;9.462;-0.025;-0.035;0.110;
20200827_155539;-0.034;6.249;8.152;-0.108;-0.073;0.214;
20200827_155539;1.523;8.313;3.479;0.075;-0.098;0.128;
20200827_155539;0.457;5.804;6.522;0.015;0.010;0.298;
20200827_155539;0.366;6.728;8.507;0.018;0.130;0.372;
20200827_155539;-0.467;5.753;11.847;0.036;0.273;0.162;
20200827_155539;0.541;6.977;5.143;0.067;0.278;-0.014;
20200827_155540;-1.075;4.791;5.665;-0.041;0.199;-0.096;
20200827_155540;1.030;6.177;8.593;0.071;0.117;-0.086;
20200827_155540;-0.328;7.465;6.804;0.096;0.038;-0.379;
20200827_155540;0.381;6.852;4.925;0.032;-0.067;-0.031;
20200827_155540;1.585;6.876;5.387;-0.026;-0.101;0.047;
20200827_155540;0.050;5.195;7.037;0.030;0.037;0.096;
20200827_155540;0.247;6.821;9.943;0.005;0.173;0.148;
20200827_155540;-0.177;5.344;6.812;-0.015;0.199;-0.037;
20200827_155540;-0.139;6.902;6.120;0.002;0.127;-0.266;
20200827_155541;-1.731;4.812;5.658;0.316;0.237;-0.243;
20200827_155541;-3.170;7.556;2.550;0.138;-0.070;-0.185;
20200827_155541;-0.632;5.169;-8.432;0.037;-0.032;0.091;
20200827_155541;-0.766;15.000;7.573;0.311;0.016;0.000;
20200827_155541;1.346;1.329;14.432;-0.165;-0.067;-0.150;
20200827_155541;0.800;3.426;8.993;-0.067;-0.109;-0.016;
20200827_155541;1.662;4.599;0.728;-0.065;0.087;0.195;
20200827_155541;-3.428;3.943;5.016;0.687;0.046;-0.008;
20200827_155541;0.532;6.788;6.512;-0.103;0.058;-0.047;
20200827_155542;0.558;7.424;7.020;-0.136;0.086;-0.183;
20200827_155542;2.011;6.455;6.974;0.020;-0.223;-0.465;
20200827_155542;-1.209;5.337;5.162;-0.005;-0.210;-0.154;
20200827_155542;-0.622;7.508;-2.188;0.150;-0.214;0.304;
20200827_155542;2.380;3.642;1.149;-0.097;-0.012;0.189;
20200827_155542;-1.310;3.342;18.251;-0.035;-0.118;0.004;
20200827_155542;0.120;7.532;5.533;0.312;0.149;0.338;
20200827_155542;1.228;2.054;1.120;-0.069;0.117;-0.085;
20200827_155542;0.120;-0.661;11.662;-0.017;-0.045;-0.381;
20200827_155542;1.099;5.466;6.543;-0.272;-0.037;-0.176;
20200827_155543;-0.802;0.512;8.516;-0.147;-0.123;-0.009;
20200827_155543;0.283;9.618;6.428;0.202;0.010;0.372;
20200827_155543;0.196;4.638;10.290;-0.177;0.187;0.292;
20200827_155543;-0.412;9.448;9.304;0.054;0.158;0.021;
20200827_155543;1.439;8.078;14.791;-0.013;-0.058;-0.117;
20200827_155543;0.474;5.543;10.139;-0.129;0.052;-0.055;
20200827_155543;-1.472;10.127;4.403;0.160;0.016;-0.136;
20200827_155543;-0.529;2.049;5.488;0.039;-0.048;-0.064;
20200827_155543;-0.821;5.176;10.008;-0.093;-0.072;0.048;
20200827_155544;-0.484;1.228;7.302;0.023;-0.019;0.093;
20200827_155544;-0.053;8.131;13.467;0.158;-0.022;0.098;
20200827_155544;-0.060;7.254;8.588;0.070;0.011;0.112;
20200827_155544;0.781;5.593;9.888;-0.164;0.005;0.066;
20200827_155544;0.371;6.163;9.376;-0.042;0.088;0.129;
20200827_155544;0.484;5.171;7.209;-0.011;0.071;0.080;
20200827_155544;1.393;4.640;5.325;-0.063;0.082;-0.002;
20200827_155544;0.084;5.772;4.875;0.038;0.056;-0.087;
20200827_155544;0.110;6.361;5.071;-0.008;0.025;-0.029;
20200827_155544;0.168;8.040;10.015;0.221;-0.028;0.042;
20200827_155545;-0.953;19.309;13.065;-0.079;0.105;-0.028;
20200827_155545;1.867;4.958;5.959;-0.063;-0.065;-0.024;
20200827_155545;-0.263;-3.036;10.987;-0.231;0.124;0.060;
20200827_155545;-1.887;5.205;8.746;0.041;0.109;0.042;
20200827_155545;1.027;3.278;5.914;-0.021;-0.043;-0.077;
20200827_155545;-0.570;4.439;10.036;0.042;-0.055;-0.113;
20200827_155545;-0.833;8.083;7.855;0.017;-0.135;-0.191;
20200827_155545;1.475;6.845;10.834;-0.057;-0.098;-0.006;
20200827_155545;-0.093;6.079;6.558;0.023;-0.028;0.131;
20200827_155545;1.688;4.441;6.038;-0.100;-0.057;0.028;
20200827_155546;0.967;5.777;7.623;-0.020;-0.044;0.042;
20200827_155546;-0.575;8.004;10.266;-0.049;0.096;0.033;
20200827_155546;0.668;3.560;4.822;0.033;0.046;-0.118;
20200827_155546;-1.446;7.403;5.059;0.006;0.056;0.016;
20200827_155546;-0.223;8.289;4.966;-0.048;0.065;0.099;
20200827_155546;1.408;9.098;8.626;0.047;-0.008;-0.083;
20200827_155546;0.041;15.134;-2.528;-0.499;-0.059;-0.206;
20200827_155546;-0.383;9.656;12.467;0.055;-0.101;-0.110;
20200827_155546;-0.570;7.417;12.634;0.145;-0.057;0.084;
20200827_155547;-0.108;5.954;9.641;-0.080;-0.038;-0.072;
20200827_155547;0.433;5.504;10.058;-0.089;0.052;0.093;
20200827_155547;0.469;6.163;6.560;0.049;0.213;0.108;
20200827_155547;1.008;3.917;5.100;-0.060;0.196;-0.137;
20200827_155547;0.656;8.509;3.467;-0.012;0.218;-0.330;
20200827_155547;-0.730;9.641;6.598;-0.056;0.147;-0.372;
20200827_155547;0.690;7.503;8.492;0.070;-0.013;-0.393;
20200827_155547;0.910;6.218;6.917;0.083;-0.127;-0.553;
20200827_155547;-0.237;5.995;9.869;0.023;-0.202;-0.464;
20200827_155547;0.570;8.847;7.180;0.112;-0.345;-0.309;
20200827_155548;0.520;6.481;7.307;0.086;-0.329;-0.220;
20200827_155548;0.115;4.255;10.906;0.026;-0.285;0.067;
20200827_155548;-0.759;4.058;2.892;0.061;-0.014;0.177;
20200827_155548;0.505;3.907;7.956;-0.038;-0.109;-0.199;
20200827_155548;0.062;7.161;0.551;-0.067;-0.103;-0.559;
20200827_155548;0.239;4.226;4.961;0.065;-0.308;-0.024;
20200827_155548;-1.372;-5.875;13.259;0.387;-0.291;-0.168;
20200827_155548;-1.879;6.285;5.016;0.111;-0.358;-0.042;
20200827_155548;-0.034;0.962;2.916;-0.010;-0.329;0.530;
20200827_155549;0.213;6.764;8.066;-0.029;-0.193;0.478;
20200827_155549;0.441;4.812;7.456;0.030;-0.185;0.225;
20200827_155549;-1.207;1.815;6.151;-0.003;-0.036;0.426;
20200827_155549;0.069;7.616;7.752;0.077;0.138;0.585;
20200827_155549;0.922;6.127;8.928;-0.030;0.204;0.399;
20200827_155549;1.190;10.465;17.499;-0.098;0.316;0.243;
20200827_155549;0.886;2.598;5.318;0.127;0.199;-0.059;
20200827_155549;-0.316;6.524;10.831;0.119;0.093;-0.198;
20200827_155549;-0.182;5.978;7.800;0.025;-0.010;-0.200;
20200827_155549;-0.546;6.644;7.599;0.004;0.030;0.232;
20200827_155550;1.041;7.010;-2.768;-0.083;0.071;0.187;
20200827_155550;3.060;9.878;4.360;-0.135;0.071;0.099;
20200827_155550;-0.821;12.627;7.465;0.204;0.137;0.021;
20200827_155550;0.225;5.318;4.063;0.154;0.230;0.139;
20200827_155550;0.460;9.280;10.094;0.023;0.161;-0.088;
20200827_155550;0.955;6.967;8.942;-0.148;0.135;-0.143;
20200827_155550;0.041;8.140;17.147;-0.191;0.054;-0.150;
20200827_155550;0.812;2.298;6.213;0.098;0.061;-0.056;
20200827_155550;-1.209;9.225;16.369;-0.225;0.057;-0.134;
20200827_155551;1.334;10.412;5.303;-0.014;-0.114;-0.179;
20200827_155551;0.148;3.704;12.823;-0.163;-0.054;-0.120;
20200827_155551;-0.146;10.460;11.466;-0.100;0.013;0.121;
20200827_155551;2.756;7.743;-0.101;0.355;-0.008;-0.003;
20200827_155551;-2.200;1.504;2.409;0.263;0.049;0.036;
20200827_155551;0.122;9.764;7.779;0.025;-0.037;-0.102;
20200827_155551;-1.726;-0.670;1.805;0.217;0.089;0.096;
20200827_155551;-0.338;8.526;7.259;0.139;-0.040;-0.051;
20200827_155551;0.170;5.476;14.107;-0.155;-0.065;-0.261;
20200827_155552;2.734;8.200;3.323;-0.272;-0.256;-0.229;
20200827_155552;-0.002;4.853;15.730;-0.273;-0.109;0.174;
20200827_155552;-0.180;4.034;7.776;0.008;-0.044;0.211;
20200827_155552;0.500;5.830;10.465;0.162;0.109;0.061;
20200827_155552;-1.626;2.246;2.648;0.044;0.059;-0.071;
20200827_155552;1.793;10.532;6.536;-0.101;0.010;-0.122;
20200827_155552;-1.815;2.188;1.393;0.060;-0.103;-0.151;
20200827_155552;-1.228;5.686;3.500;0.061;-0.061;0.079;
20200827_155552;-0.781;6.747;-0.848;0.124;-0.107;0.003;
20200827_155552;0.409;5.567;11.890;0.037;-0.039;0.066;
20200827_155553;-1.125;5.521;7.307;0.194;-0.013;0.244;
20200827_155553;0.599;4.515;6.649;0.065;-0.000;0.151;
20200827_155553;-1.262;4.049;15.297;0.208;0.094;0.060;
20200827_155553;0.261;3.922;9.184;0.079;0.105;0.140;
20200827_155553;1.671;8.502;14.621;-0.109;0.117;-0.042;
20200827_155553;0.204;2.025;9.313;-0.183;0.063;-0.161;
20200827_155553;0.323;3.630;7.120;-0.002;0.008;-0.117;
20200827_155553;0.342;0.895;7.887;-0.101;-0.014;-0.116;
20200827_155553;-0.283;3.632;7.954;-0.145;0.058;0.064;
20200827_155553;0.177;5.440;10.056;-0.085;0.043;0.002;
20200827_155554;-1.130;3.632;4.702;-0.032;0.112;0.119;
20200827_155554;1.432;12.287;8.744;-0.017;0.072;-0.022;
20200827_155554;1.128;7.721;1.563;0.014;0.026;-0.124;
20200827_155554;1.616;2.207;6.914;-0.048;-0.031;-0.203;
20200827_155554;-0.247;2.983;12.694;-0.140;-0.046;-0.126;
20200827_155554;-0.438;4.204;1.520;0.300;-0.127;-0.069;
20200827_155554;-0.551;8.550;5.969;0.074;-0.049;0.133;
20200827_155554;-0.002;1.827;7.099;-0.008;-0.008;0.143;
20200827_155554;0.493;2.085;8.712;-0.066;0.038;0.023;
20200827_155555;0.424;11.789;17.844;-0.158;-0.065;-0.193;
20200827_155555;-0.050;10.908;12.380;0.103;-0.055;-0.036;
20200827_155555;-0.661;4.815;4.975;-0.003;0.029;-0.016;
20200827_155555;0.922;7.999;6.457;0.214;-0.138;0.031;
20200827_155555;0.182;9.395;7.757;0.072;-0.009;0.286;
20200827_155555;0.797;7.501;8.406;-0.057;-0.005;0.182;
20200827_155555;0.613;6.091;2.471;0.132;0.075;0.129;
20200827_155555;0.690;2.119;-2.698;0.217;0.019;-0.001;
20200827_155555;1.465;7.860;8.890;0.102;0.040;0.052;
20200827_155555;-0.194;5.183;4.647;0.002;0.029;0.141;
20200827_155556;0.127;10.080;15.198;-0.046;0.147;0.284;
20200827_155556;0.060;4.350;11.459;-0.019;0.203;0.163;
20200827_155556;-0.816;8.040;13.827;-0.150;0.184;-0.054;
20200827_155556;0.642;1.535;3.335;-0.206;0.096;-0.168;
20200827_155556;-2.942;6.869;39.574;-0.516;0.031;-0.167;
20200827_155556;-1.377;10.341;11.279;0.134;-0.065;-0.055;
20200827_155556;1.267;2.830;6.589;-0.091;-0.080;0.072;
20200827_155556;0.067;5.617;5.169;0.019;-0.026;0.181;
20200827_155556;0.072;7.089;9.883;-0.036;0.120;0.238;
20200827_155557;1.549;7.623;4.741;0.030;0.145;0.024;
20200827_155557;0.498;7.563;12.129;-0.011;0.136;-0.108;
20200827_155557;0.812;6.167;4.393;0.035;0.118;-0.276;
20200827_155557;-1.180;6.845;6.287;0.005;0.066;-0.242;
20200827_155557;-1.506;5.476;4.767;0.034;-0.026;-0.113;
20200827_155557;0.606;6.357;10.843;-0.025;-0.100;-0.101;
20200827_155557;-0.285;7.010;3.201;-0.007;-0.155;-0.299;
20200827_155557;0.972;5.691;9.088;0.038;-0.179;-0.107;
20200827_155557;-0.314;6.725;4.616;0.028;-0.186;-0.086;
20200827_155558;0.393;5.420;8.066;0.014;-0.174;0.123;
20200827_155558;-1.245;5.267;6.812;0.019;0.086;0.474;
20200827_155558;1.154;4.817;4.293;0.026;0.189;0.334;
20200827_155558;1.453;6.053;8.710;-0.003;0.213;-0.016;
20200827_155558;0.235;5.318;7.685;0.033;0.205;-0.195;
20200827_155558;1.188;7.649;4.659;0.006;0.054;-0.459;
20200827_155558;-0.565;7.384;9.414;-0.001;0.142;-0.231;
20200827_155558;0.931;5.768;7.987;-0.062;0.019;-0.281;
20200827_155558;-0.469;6.567;6.709;0.037;-0.019;-0.366;
20200827_155558;0.929;6.203;6.625;0.053;-0.208;-0.387;
20200827_155559;0.012;8.076;6.577;0.013;-0.122;-0.273;
20200827_155559;1.243;6.012;9.639;0.041;-0.208;-0.355;
20200827_155559;0.077;7.341;10.709;0.049;-0.158;-0.277;
20200827_155559;-1.642;5.904;10.075;0.061;-0.104;-0.244;
20200827_155559;0.103;7.003;6.184;0.055;-0.220;-0.193;
20200827_155559;0.069;5.531;4.535;0.031;-0.169;-0.244;
20200827_155559;1.537;8.203;11.799;0.048;-0.300;-0.447;
20200827_155559;-0.508;6.601;5.804;0.078;-0.412;-0.404;
20200827_155559;-0.077;6.515;9.424;0.089;-0.488;-0.117;
20200827_155559;-1.295;3.618;3.994;0.105;-0.413;0.156;
20200827_155600;-0.826;7.005;10.082;-0.009;-0.342;0.320;
20200827_155600;0.177;6.606;7.384;0.052;-0.250;0.360;
20200827_155600;-0.680;5.023;6.888;0.039;-0.170;0.403;
20200827_155600;0.338;5.430;7.262;-0.029;-0.054;0.498;
20200827_155600;-0.314;4.551;7.326;0.040;0.083;0.413;
20200827_155600;1.144;10.822;6.431;0.159;0.041;0.248;
20200827_155600;0.084;6.646;3.694;0.181;0.132;0.202;
20200827_155600;-0.017;3.668;11.609;-0.136;0.148;0.368;
20200827_155600;-0.235;6.857;8.775;-0.035;0.222;0.281;
20200827_155601;-0.151;6.397;11.447;0.164;0.264;0.181;
20200827_155601;0.776;7.977;9.311;0.110;0.277;0.146;
20200827_155601;0.869;11.758;5.212;0.320;0.248;-0.016;
20200827_155601;1.120;5.775;10.585;-0.063;0.257;-0.114;
20200827_155601;0.687;6.144;5.095;-0.274;0.171;-0.127;
20200827_155601;0.342;0.927;-5.274;0.052;0.177;-0.247;
20200827_155601;-1.726;3.112;-0.275;0.253;0.200;-0.183;
20200827_155601;2.435;6.292;14.966;0.184;0.057;-0.306;
20200827_155601;-1.362;-1.085;-23.528;0.544;0.041;-0.180;
20200827_155602;-1.448;-1.951;7.116;-0.886;0.076;-0.410;
20200827_155602;-0.747;0.148;6.507;-0.151;0.016;-0.205;
20200827_155602;0.402;-8.696;-2.897;-0.915;0.062;-0.168;
20200827_155602;-0.311;-2.385;6.503;0.107;-0.047;-0.518;
20200827_155602;0.709;7.760;12.498;0.214;-0.163;-0.505;
20200827_155602;-1.824;3.041;12.929;-0.026;-0.293;-0.206;
20200827_155602;0.017;5.279;8.490;0.024;-0.087;-0.091;
20200827_155602;2.523;7.879;6.433;0.103;-0.318;-0.290;
20200827_155602;1.053;9.074;11.495;0.133;-0.150;-0.128;
20200827_155602;-2.025;5.198;1.125;0.095;-0.029;0.030;
20200827_155603;-1.293;1.894;-22.474;0.150;-0.121;-0.552;
20200827_155603;2.887;8.449;17.154;-0.077;-0.144;-0.206;
20200827_155603;0.024;-9.764;19.539;-0.018;-0.317;-0.212;
20200827_155603;-1.185;9.524;11.765;0.254;-0.187;0.053;
20200827_155603;0.962;7.463;10.429;0.022;-0.296;0.026;
20200827_155603;0.642;5.689;8.916;0.128;-0.257;0.086;
20200827_155603;-0.230;5.646;-1.640;0.021;-0.171;0.151;
20200827_155603;1.841;9.043;6.840;0.203;-0.031;0.010;
20200827_155603;-0.474;2.871;4.420;0.168;-0.023;0.013;
20200827_155604;-0.632;5.605;14.607;-0.170;0.065;-0.091;
20200827_155604;-0.869;3.632;9.014;-0.081;-0.096;-0.227;
20200827_155604;0.946;5.136;8.775;-0.049;-0.087;-0.202;
20200827_155604;-0.524;9.400;37.666;-0.078;-0.037;-0.155;
20200827_155604;-1.159;7.101;5.966;0.184;-0.064;0.306;
20200827_155604;-3.979;6.563;17.686;-0.578;-0.107;-0.295;
20200827_155604;-2.301;15.218;15.258;0.327;0.019;-0.539;
20200827_155604;-2.361;7.954;2.073;0.030;-0.135;0.014;
20200827_155604;0.804;8.748;8.088;0.034;-0.139;-0.191;
20200827_155605;0.670;7.207;7.166;0.044;-0.185;-0.216;
20200827_155605;-0.213;6.110;5.353;0.044;-0.026;-0.057;
20200827_155605;-0.057;3.452;5.741;0.004;-0.114;-0.146;
20200827_155605;-0.974;6.357;4.688;-0.018;-0.108;-0.121;
20200827_155605;-0.184;6.953;7.561;0.045;-0.016;0.052;
20200827_155605;-0.297;5.732;8.327;0.039;0.049;-0.028;
20200827_155605;-0.594;7.482;7.784;0.017;0.028;-0.121;
20200827_155605;-0.582;6.414;9.218;0.020;-0.002;-0.229;
20200827_155605;-0.057;7.834;7.298;-0.014;-0.195;-0.396;
20200827_155605;-0.948;5.212;4.173;0.184;-0.174;-0.216;
20200827_155606;2.085;2.006;9.510;0.103;-0.129;-0.149;
20200827_155606;-0.043;7.017;9.057;-0.005;-0.255;-0.172;
20200827_155606;0.290;6.484;3.302;0.097;-0.271;-0.194;
20200827_155606;0.204;7.489;10.297;0.146;-0.162;-0.140;
20200827_155606;-0.962;5.179;7.283;-0.057;-0.165;-0.200;
20200827_155606;-0.783;6.335;4.187;-0.052;-0.107;-0.034;
20200827_155606;-0.611;5.720;7.377;-0.087;-0.093;-0.004;
20200827_155606;-1.425;6.687;3.771;-0.044;0.075;0.113;
20200827_155606;-0.309;8.344;5.329;0.024;-0.057;-0.266;
20200827_155607;0.402;6.024;6.445;-0.035;-0.112;-0.387;
20200827_155607;-0.120;6.653;7.798;0.067;-0.195;-0.498;
20200827_155607;0.108;4.939;6.531;0.019;-0.333;-0.332;
20200827_155607;-0.840;6.546;8.969;0.068;-0.291;-0.074;
20200827_155607;-0.800;4.568;5.686;0.032;-0.233;0.093;
20200827_155607;0.943;7.393;9.668;-0.024;-0.169;0.066;
20200827_155607;-0.441;6.199;8.796;0.081;-0.074;-0.001;
20200827_155607;0.199;6.388;8.143;0.054;-0.049;-0.016;
20200827_155607;-0.364;6.409;4.750;0.001;-0.023;-0.077;
20200827_155607;0.503;8.305;6.510;0.056;-0.063;-0.118;
20200827_155608;-0.417;6.325;6.179;0.028;-0.125;-0.220;
20200827_155608;-1.118;5.945;5.195;0.012;-0.166;-0.188;
20200827_155608;-0.309;6.955;10.147;-0.015;-0.257;-0.140;
20200827_155608;-0.919;5.449;6.670;-0.087;-0.210;0.001;
20200827_155608;-0.915;6.407;6.591;-0.021;-0.185;0.155;
20200827_155608;-0.110;7.815;10.116;-0.063;-0.122;0.182;
20200827_155608;0.929;7.329;4.305;0.023;-0.106;0.186;
20200827_155608;1.487;5.394;7.096;0.018;-0.024;0.052;
20200827_155608;0.067;6.936;11.827;-0.124;0.071;0.050;
20200827_155609;0.484;6.946;4.065;-0.066;0.040;0.040;
20200827_155609;0.697;7.118;9.665;-0.095;0.002;-0.271;
20200827_155609;0.792;6.718;6.795;0.024;-0.026;-0.090;
20200827_155609;-1.207;5.011;7.427;0.124;0.069;-0.010;
20200827_155609;-0.357;5.021;8.552;-0.032;0.014;-0.143;
20200827_155609;0.433;7.190;7.518;0.009;-0.058;-0.242;
20200827_155609;-0.230;7.709;9.273;0.101;0.006;-0.025;
20200827_155609;0.649;6.134;3.706;0.048;-0.140;-0.055;
20200827_155609;-0.867;7.420;8.119;-0.021;-0.145;-0.074;
20200827_155609;0.632;6.639;8.198;-0.032;-0.168;-0.144;
20200827_155610;-0.160;4.707;2.112;0.080;-0.093;0.030;
20200827_155610;-0.462;4.089;4.166;0.047;-0.081;0.222;
20200827_155610;0.745;10.635;6.967;-0.024;-0.184;0.210;
20200827_155610;1.858;5.052;13.879;-0.038;-0.255;0.049;
20200827_155610;0.582;5.787;5.444;0.023;-0.076;0.307;
20200827_155610;2.380;7.676;4.614;0.067;0.189;0.542;
20200827_155610;2.164;6.282;6.124;0.102;0.233;0.149;
20200827_155610;-0.007;6.879;10.800;-0.077;-0.091;-0.546;
20200827_155610;-0.124;6.665;5.947;-0.004;-0.220;-0.327;
20200827_155611;-0.831;6.108;5.612;0.016;-0.155;0.350;
20200827_155611;-8.578;-3.733;2.310;0.156;0.295;1.555;
20200827_155611;10.523;6.845;-3.033;-0.317;0.355;0.286;
20200827_155611;15.605;-2.703;14.291;0.551;-0.284;0.832;
20200827_155611;8.425;10.257;7.827;0.015;0.065;-0.049;
20200827_155611;-2.607;4.372;12.692;0.047;0.327;0.107;
20200827_155611;-1.575;0.730;18.854;-0.336;-0.002;-0.447;
20200827_155611;-1.427;8.715;2.054;0.264;0.281;0.457;
20200827_155611;-1.156;9.828;9.622;0.155;0.208;0.139;
20200827_155611;0.620;3.050;2.758;0.261;0.050;-0.114;
20200827_155612;0.670;0.575;11.272;-0.188;0.039;-0.138;
20200827_155612;-2.181;6.175;2.555;0.246;0.177;0.287;
20200827_155612;-1.037;7.175;9.603;0.022;0.167;0.411;
20200827_155612;0.036;4.645;4.630;-0.036;0.156;0.188;
20200827_155612;-0.098;6.160;12.198;-0.002;0.191;0.059;
20200827_155612;1.535;7.836;7.422;0.063;0.070;-0.335;
20200827_155612;0.855;4.082;0.601;0.284;-0.079;-0.331;
20200827_155612;-1.348;8.751;4.197;0.044;-0.150;-0.236;
20200827_155612;-0.045;8.775;6.598;-0.038;-0.236;-0.040;
20200827_155613;0.168;4.681;10.489;-0.076;-0.011;0.324;
20200827_155613;-2.301;13.539;4.803;0.225;0.027;0.561;
20200827_155613;-0.280;6.354;9.718;0.008;0.183;0.608;
20200827_155613;1.331;9.747;11.231;0.105;0.029;0.358;
20200827_155613;1.496;4.652;8.935;-0.000;-0.007;0.212;
20200827_155613;1.559;8.971;-0.883;0.098;-0.039;0.172;
20200827_155613;0.972;5.880;15.919;-0.092;0.159;0.360;
20200827_155613;0.165;8.983;14.420;0.053;0.307;0.605;
20200827_155613;-2.533;3.859;0.965;0.047;0.317;0.508;
20200827_155614;0.855;10.700;34.199;-0.166;0.408;0.815;
20200827_155614;-3.012;-6.838;-27.495;0.527;0.109;0.281;
20200827_155614;4.257;0.373;5.150;0.089;0.014;-0.441;
20200827_155614;2.251;50.525;-11.143;1.591;-0.206;-0.342;
20200827_155614;0.484;10.288;8.909;-0.209;0.138;0.050;
20200827_155614;0.309;4.623;10.135;-0.167;-0.180;0.143;
20200827_155614;0.271;12.069;16.920;0.034;0.001;0.444;
20200827_155614;0.412;6.352;4.999;0.197;0.061;0.453;
20200827_155614;-0.101;7.319;3.785;-0.029;0.277;1.163;
20200827_155614;1.650;5.691;7.724;0.049;0.396;0.847;
20200827_155615;2.476;6.675;2.942;0.231;0.275;0.270;
20200827_155615;0.175;6.771;6.460;0.177;0.265;0.115;
20200827_155615;-0.745;4.982;6.524;0.198;0.380;0.407;
20200827_155615;1.243;2.591;9.515;0.193;0.409;0.478;
20200827_155615;-1.875;3.256;17.408;0.330;0.449;0.507;
20200827_155615;1.295;8.037;7.664;0.286;0.448;0.535;
20200827_155615;1.987;7.204;7.422;0.245;0.541;0.608;
20200827_155615;0.953;4.499;5.638;0.341;0.612;0.324;
20200827_155615;1.527;6.778;12.036;0.251;0.380;-0.162;
20200827_155616;0.024;7.525;6.462;0.103;0.295;-0.067;
20200827_155616;0.196;6.979;10.671;0.117;0.331;0.075;
20200827_155616;2.962;3.996;6.517;0.139;0.084;-0.199;
20200827_155616;-2.097;6.282;11.698;-0.062;0.408;0.239;
20200827_155616;1.997;5.844;5.837;0.025;0.225;-0.034;
20200827_155616;2.004;7.719;9.620;-0.061;0.163;-0.129;
20200827_155616;0.038;5.720;6.658;0.045;0.207;-0.026;
20200827_155616;-0.601;6.428;8.461;0.073;0.188;-0.166;
20200827_155616;0.788;7.527;-0.802;-0.042;0.202;0.069;
20200827_155616;2.478;9.045;5.835;0.074;0.345;0.219;
20200827_155617;1.496;5.373;6.838;-0.203;0.306;-0.175;
20200827_155617;-0.242;4.396;1.930;-0.035;0.011;-0.688;
20200827_155617;-0.656;4.913;-7.527;0.131;-0.018;-0.391;
20200827_155617;-4.144;16.563;11.842;-0.925;-0.482;-1.021;
20200827_155617;0.709;6.151;9.620;0.119;-0.208;-0.137;
20200827_155617;-2.174;11.691;3.979;-0.119;-0.182;0.375;
20200827_155617;-0.759;2.368;9.476;-0.043;-0.111;0.129;
20200827_155617;0.840;5.825;4.317;0.025;-0.203;-0.033;
20200827_155617;0.484;6.788;5.851;-0.000;-0.105;0.081;
20200827_155618;-1.460;4.468;5.341;0.072;0.023;0.293;
20200827_155618;0.965;6.328;7.417;-0.130;-0.028;0.084;
20200827_155618;-0.285;5.940;8.622;-0.015;0.012;0.062;
20200827_155618;-0.259;7.037;6.773;0.039;0.074;0.167;
20200827_155618;-0.735;6.369;13.398;0.097;0.098;0.214;
20200827_155618;-0.093;3.543;3.953;-0.129;0.105;0.187;
20200827_155618;2.169;7.889;9.670;-0.037;-0.043;-0.110;
20200827_155618;-0.951;6.203;4.324;0.074;0.004;-0.047;
20200827_155618;2.598;4.436;7.312;-0.035;-0.154;0.030;
20200827_155618;-0.792;7.415;9.335;-0.014;-0.067;0.160;
20200827_155619;0.373;8.610;8.686;0.028;-0.082;0.183;
20200827_155619;1.824;6.254;7.549;0.037;0.055;0.329;
20200827_155619;1.413;5.892;8.301;-0.033;0.148;0.322;
20200827_155619;-0.903;7.872;9.634;0.011;0.259;0.214;
20200827_155619;0.105;5.025;5.962;0.085;0.207;0.011;
20200827_155619;0.620;6.120;7.556;-0.020;0.101;-0.134;
20200827_155619;-0.326;5.995;7.913;0.004;0.063;-0.054;
20200827_155619;0.287;5.296;6.941;-0.000;0.068;0.131;
20200827_155619;-0.170;5.547;3.847;0.015;0.132;0.032;
20200827_155620;-0.831;6.330;7.853;-0.036;0.132;0.046;
20200827_155620;0.723;6.455;8.981;0.030;0.063;-0.154;
20200827_155620;1.504;5.672;4.221;0.048;-0.012;-0.156;
20200827_155620;3.165;5.914;8.466;-0.080;-0.043;-0.187;
20200827_155620;-0.429;5.737;7.709;0.066;0.092;-0.104;
20200827_155620;-0.129;5.329;11.777;-0.019;0.072;-0.077;
20200827_155620;-1.317;1.410;21.222;0.365;0.247;0.132;
20200827_155620;-0.670;11.751;19.036;-0.069;-0.119;-0.066;
20200827_155620;0.706;13.633;-0.187;-0.000;0.133;-0.243;
20200827_155621;1.460;14.344;-3.129;0.535;-0.314;-0.257;
20200827_155621;-0.409;-6.637;-15.507;0.006;-0.335;-0.380;
20200827_155621;0.079;5.600;-5.492;-0.593;-0.002;0.150;
20200827_155621;-5.126;13.106;20.576;0.117;-0.173;-0.826;
20200827_155621;7.556;10.901;-4.997;-0.425;-0.700;-0.902;
20200827_155621;2.574;-13.391;-16.027;0.996;0.052;0.733;
20200827_155621;2.626;6.613;-2.066;-0.089;-0.220;-0.165;
20200827_155621;-2.286;-1.030;-8.380;1.066;0.265;0.608;
20200827_155621;-2.375;5.789;12.706;0.327;0.095;-0.217;
20200827_155622;1.970;6.579;4.274;-0.211;-0.135;-0.807;
20200827_155622;-2.626;9.072;-0.833;0.301;-0.273;-1.145;
20200827_155622;-1.202;-2.648;12.139;-0.220;-0.256;-0.430;
20200827_155622;-0.716;12.282;5.959;0.050;-0.129;0.025;
20200827_155622;-1.245;13.187;21.545;0.040;-0.287;-0.217;
20200827_155622;4.719;14.178;17.741;-0.477;-0.441;-0.642;
20200827_155622;3.531;2.207;6.524;-0.132;-0.133;-0.258;
20200827_155622;6.735;2.672;18.732;-0.352;-0.672;-0.774;
20200827_155622;-0.445;1.721;1.851;0.152;-0.512;-0.481;
20200827_155622;-2.210;13.793;35.810;0.003;-0.156;0.202;
20200827_155623;-6.462;-4.755;9.179;0.701;0.257;-0.673;
20200827_155623;-1.219;-6.460;5.432;0.113;-0.088;0.500;
20200827_155623;-4.317;0.330;6.840;-0.118;-0.141;0.016;
20200827_155623;-1.082;8.121;10.578;-0.119;-0.278;0.066;
20200827_155623;-1.001;8.507;9.491;-0.005;-0.182;0.415;
20200827_155623;1.305;3.666;6.536;-0.016;-0.047;0.581;
20200827_155623;-0.898;7.599;6.579;0.036;0.070;0.552;
20200827_155623;2.710;6.244;3.433;0.004;0.071;0.154;
20200827_155623;2.394;5.078;4.187;0.013;0.012;-0.044;
20200827_155624;-0.213;5.650;8.770;0.006;0.135;-0.050;
20200827_155624;0.769;6.871;8.203;-0.025;0.040;0.069;
20200827_155624;-1.025;8.404;10.956;0.025;0.126;0.253;
20200827_155624;0.539;7.015;5.662;0.017;0.155;0.294;
20200827_155624;1.307;5.385;7.587;0.014;0.090;0.085;
20200827_155624;-1.276;5.701;4.073;0.030;0.110;0.067;
20200827_155624;-0.101;8.289;9.663;0.007;0.107;0.064;
20200827_155624;0.287;6.404;9.354;-0.053;0.061;-0.041;
20200827_155624;0.860;6.965;9.354;-0.017;0.012;-0.078;
20200827_155625;1.396;6.879;4.312;0.045;-0.036;-0.071;
20200827_155625;1.968;6.586;7.939;-0.042;0.058;0.075;
20200827_155625;-0.268;6.134;8.401;-0.010;0.123;0.078;
20200827_155625;0.297;8.250;8.643;0.024;0.134;0.119;
20200827_155625;0.007;6.498;8.753;0.031;0.247;0.074;
20200827_155625;1.331;8.902;5.677;0.047;0.144;-0.172;
20200827_155625;-0.144;4.992;3.867;0.060;0.069;-0.260;
20200827_155625;1.420;7.626;11.926;-0.060;-0.156;-0.323;
20200827_155625;-1.180;5.049;6.146;-0.043;-0.165;-0.096;
20200827_155626;-1.800;7.669;7.400;0.036;0.004;0.387;
20200827_155626;0.879;9.201;8.286;0.020;-0.121;-0.001;
20200827_155626;1.283;7.044;6.771;0.013;0.027;0.095;
20200827_155626;-0.917;6.596;7.527;0.034;0.133;0.190;
20200827_155626;1.796;7.843;6.749;0.097;0.099;0.042;
20200827_155626;2.377;6.869;7.877;0.003;0.103;-0.068;
20200827_155626;1.621;6.239;5.483;0.009;0.021;-0.139;
20200827_155626;-0.678;6.721;5.839;0.035;0.044;-0.053;
20200827_155626;0.407;5.811;6.752;0.035;-0.006;-0.134;
20200827_155626;-0.378;7.295;8.274;0.068;-0.044;-0.089;
20200827_155627;0.646;6.220;6.335;0.060;-0.121;-0.052;
20200827_155627;1.183;5.466;7.465;-0.043;-0.112;-0.064;
20200827_155627;-1.851;6.340;6.560;-0.059;-0.067;0.017;
20200827_155627;1.092;6.831;8.729;-0.010;-0.011;0.096;
20200827_155627;-0.879;8.478;10.192;-0.028;0.024;0.154;
20200827_155627;0.139;6.577;9.479;-0.077;0.109;0.154;
20200827_155627;0.194;6.668;6.922;-0.003;0.120;0.010;
20200827_155627;0.893;7.860;6.888;0.049;0.109;-0.107;
20200827_155627;0.637;6.258;8.332;0.039;-0.030;-0.282;
20200827_155628;-0.242;6.179;6.531;-0.012;-0.086;-0.082;
20200827_155628;0.407;3.589;3.117;-0.023;-0.042;0.138;
20200827_155628;-0.034;7.286;8.811;-0.040;-0.011;0.166;
20200827_155628;1.585;5.590;5.997;0.005;-0.055;0.111;
20200827_155628;1.779;5.856;6.060;-0.018;-0.030;-0.003;
20200827_155628;0.824;4.757;8.085;0.040;0.069;-0.065;
20200827_155628;-0.852;6.172;8.964;-0.046;-0.023;-0.110;
20200827_155628;0.551;9.096;11.083;-0.042;-0.000;-0.062;
20200827_155628;-1.056;5.856;6.287;0.025;-0.022;0.102;
20200827_155628;-0.244;6.194;6.852;0.005;-0.021;0.099;
20200827_155629;-0.220;4.774;5.274;-0.003;-0.037;0.025;
20200827_155629;-0.132;3.938;4.628;-0.016;0.025;0.090;
20200827_155629;0.757;4.396;7.515;-0.073;0.050;0.112;
20200827_155629;0.393;6.950;7.032;0.022;0.023;-0.071;
20200827_155629;1.494;7.104;8.674;-0.040;-0.022;-0.128;
20200827_155629;-0.074;5.253;8.011;0.021;0.059;-0.073;
20200827_155629;0.706;6.780;8.990;0.058;0.050;-0.055;
20200827_155629;-0.951;4.551;4.226;0.014;0.066;-0.064;
20200827_155629;1.559;6.141;7.221;-0.035;-0.075;-0.169;
20200827_155630;-0.481;6.610;7.412;0.028;-0.005;-0.023;
20200827_155630;0.766;7.259;10.312;0.039;-0.097;-0.055;
20200827_155630;-0.314;4.599;5.217;-0.027;-0.061;0.121;
20200827_155630;-1.216;5.816;7.858;-0.053;-0.016;0.161;
20200827_155630;-0.400;7.230;6.120;0.040;0.074;0.221;
20200827_155630;0.462;7.369;7.786;0.026;0.019;-0.051;
20200827_155630;1.405;6.055;8.856;0.013;0.002;-0.146;
20200827_155630;0.029;6.689;10.175;-0.002;0.055;-0.057;
20200827_155630;-0.994;5.076;4.013;0.064;0.078;0.049;
20200827_155630;0.685;5.121;7.348;-0.016;0.167;0.186;
20200827_155631;1.049;5.325;4.288;-0.035;0.075;-0.209;
20200827_155631;-0.532;5.954;5.739;-0.061;-0.010;-0.253;
20200827_155631;1.152;5.598;9.309;-0.082;-0.199;-0.248;
20200827_155631;-0.373;5.452;4.444;0.024;-0.163;-0.179;
20200827_155631;-1.077;7.654;8.703;-0.004;-0.147;0.158;
20200827_155631;1.231;6.771;8.164;-0.005;-0.052;0.165;
20200827_155631;-0.275;8.150;4.721;0.094;0.066;0.118;
20200827_155631;-0.359;6.065;9.072;0.045;0.092;0.134;
20200827_155631;0.381;4.087;3.352;0.053;0.200;0.082;
20200827_155632;1.231;5.392;7.508;-0.043;0.092;-0.308;
20200827_155632;-0.843;7.077;5.521;-0.019;-0.088;-0.406;
20200827_155632;-0.105;7.810;10.072;-0.028;-0.101;-0.065;
20200827_155632;-1.554;7.417;7.207;0.018;-0.092;0.083;
20200827_155632;1.441;6.642;9.345;-0.002;-0.079;0.033;
20200827_155632;0.048;4.949;4.690;0.052;-0.095;0.027;
20200827_155632;1.264;5.389;8.394;-0.065;-0.135;-0.020;
20200827_155632;0.625;5.763;5.069;-0.032;-0.121;-0.032;
20200827_155632;0.479;7.587;8.203;-0.083;-0.062;0.105;
20200827_155632;-1.018;6.823;8.006;0.048;0.004;0.115;
20200827_155633;1.085;8.377;7.321;0.004;-0.014;0.114;
20200827_155633;-0.728;4.214;4.800;0.028;0.028;0.045;
20200827_155633;-0.824;6.223;4.331;0.014;0.107;0.080;
20200827_155633;-0.668;6.400;7.831;0.023;0.060;0.064;
20200827_155633;1.537;6.060;8.155;0.032;0.029;-0.080;
20200827_155633;0.769;4.537;3.333;0.026;-0.095;-0.138;
20200827_155633;0.606;4.360;7.544;-0.023;0.029;0.031;
20200827_155633;1.276;7.678;5.646;-0.024;-0.140;-0.175;
20200827_155633;0.144;7.678;8.449;-0.033;-0.082;-0.005;
20200827_155634;-1.063;5.339;8.586;0.063;0.010;0.214;
20200827_155634;1.053;8.703;9.469;0.033;0.091;0.271;
20200827_155634;-0.385;4.250;6.579;-0.044;0.149;0.115;
20200827_155634;0.283;6.110;6.759;-0.042;0.124;-0.113;
20200827_155634;-0.204;6.045;9.881;0.004;0.091;0.034;
20200827_155634;0.919;2.806;4.192;0.007;-0.028;-0.101;
20200827_155634;-0.326;5.978;8.432;0.063;0.087;-0.022;
20200827_155634;-1.324;6.452;6.778;0.057;0.028;0.012;
20200827_155634;1.020;8.317;9.692;-0.027;-0.043;0.007;
20200827_155634;1.343;7.075;5.713;0.051;0.007;-0.086;
20200827_155635;-1.930;6.256;8.825;0.053;0.062;0.039;
20200827_155635;-0.067;7.427;8.667;0.030;0.201;0.200;
20200827_155635;0.007;5.349;8.210;0.012;0.186;-0.106;
20200827_155635;-0.316;7.685;5.250;0.071;0.103;-0.167;
20200827_155635;-0.493;7.518;11.624;-0.014;0.090;-0.093;
20200827_155635;1.032;4.525;5.916;-0.019;-0.057;-0.224;
20200827_155635;0.955;5.586;5.555;0.075;-0.111;-0.307;
20200827_155635;-0.378;5.669;5.373;0.049;-0.183;-0.012;
20200827_155635;0.218;8.435;9.531;-0.020;-0.168;0.115;
20200827_155636;1.681;4.183;6.756;-0.069;-0.177;0.015;
20200827_155636;-2.121;5.930;6.893;0.054;0.050;0.241;
20200827_155636;0.366;7.226;8.722;-0.052;0.068;0.264;
20200827_155636;-0.160;5.239;7.602;-0.025;0.075;0.008;
20200827_155636;1.080;8.538;8.612;-0.043;0.042;-0.100;
20200827_155636;0.474;5.665;6.419;0.009;-0.003;-0.033;
20200827_155636;0.065;6.316;7.345;0.002;-0.080;-0.021;
20200827_155636;-0.388;2.375;3.831;0.069;-0.008;-0.117;
20200827_155636;1.563;3.704;1.719;0.039;-0.061;0.058;
20200827_155636;1.626;5.435;7.707;-0.131;-0.143;-0.106;
20200827_155637;0.357;7.626;4.199;0.088;-0.123;-0.081;
20200827_155637;-1.037;10.168;10.434;-0.066;-0.051;0.288;
20200827_155637;1.642;4.369;6.709;-0.000;0.158;0.468;
20200827_155637;0.716;6.673;6.855;0.063;0.144;-0.177;
20200827_155637;0.220;6.263;10.772;0.040;0.046;-0.134;
20200827_155637;0.244;4.108;4.884;0.109;-0.020;-0.209;
20200827_155637;-1.199;4.403;1.686;0.012;0.050;0.028;
20200827_155637;-0.067;6.989;1.202;0.022;0.071;0.078;
20200827_155637;1.726;9.352;10.247;-0.028;-0.049;-0.168;
20200827_155638;1.635;6.646;4.628;0.037;-0.061;-0.105;
20200827_155638;-0.067;7.415;12.653;-0.047;-0.081;-0.023;
20200827_155638;-0.096;3.230;11.073;-0.132;-0.111;0.073;
20200827_155638;-0.491;6.177;7.149;0.004;0.028;0.188;
20200827_155638;0.888;3.215;9.744;0.001;-0.003;0.099;
20200827_155638;-0.864;6.223;3.433;0.008;0.098;0.180;
20200827_155638;0.948;8.952;8.179;0.036;0.082;-0.001;
20200827_155638;0.690;5.052;7.151;0.001;-0.048;-0.240;
20200827_155638;1.030;2.722;6.263;0.080;0.071;-0.103;
20200827_155638;-0.022;8.629;9.536;-0.042;0.084;-0.114;
20200827_155639;-1.384;7.293;6.857;0.019;0.025;-0.123;
20200827_155639;-0.129;4.214;9.005;0.014;-0.078;-0.159;
20200827_155639;-0.886;5.947;4.499;-0.003;0.026;0.177;
20200827_155639;0.457;4.547;7.137;-0.018;0.076;0.162;
20200827_155639;1.173;4.183;7.166;-0.067;0.072;-0.107;
20200827_155639;0.618;4.745;4.013;0.040;-0.075;-0.271;
20200827_155639;0.443;8.279;8.128;-0.020;-0.082;-0.213;
20200827_155639;0.156;4.015;6.682;0.006;-0.088;-0.056;
20200827_155639;-0.158;5.930;8.456;-0.011;-0.041;0.060;
20200827_155640;0.903;6.917;4.642;-0.018;-0.071;0.130;
20200827_155640;-1.688;5.461;8.545;-0.049;0.143;0.194;
20200827_155640;1.635;3.203;7.796;-0.068;-0.012;-0.046;
20200827_155640;0.634;7.867;7.027;0.060;0.030;-0.055;
20200827_155640;0.680;8.030;10.156;-0.073;-0.009;-0.130;
20200827_155640;0.271;2.073;7.185;0.009;-0.018;0.003;
20200827_155640;-0.529;8.255;7.705;0.124;-0.048;-0.151;
20200827_155640;2.363;7.123;8.698;0.009;0.045;-0.116;
20200827_155640;0.785;6.436;10.561;-0.047;-0.108;0.065;
20200827_155640;0.584;6.280;6.792;-0.028;-0.036;0.091;
20200827_155641;0.220;5.212;6.673;-0.019;0.044;0.023;
20200827_155641;0.457;5.394;8.813;-0.010;-0.016;-0.044;
20200827_155641;1.252;7.678;7.559;0.029;-0.039;-0.038;
20200827_155641;0.359;4.906;3.792;-0.016;-0.013;0.036;
20200827_155641;0.045;4.319;6.613;-0.061;0.082;0.206;
20200827_155641;0.103;7.128;9.957;-0.015;0.002;0.019;
20200827_155641;1.123;5.708;7.448;0.001;0.056;-0.008;
20200827_155641;-0.496;10.458;7.535;0.028;-0.047;-0.185;
20200827_155641;0.567;5.023;5.183;-0.044;-0.090;-0.118;
20200827_155641;0.725;7.597;9.594;0.004;-0.065;0.062;
20200827_155642;0.211;4.676;6.618;0.051;0.004;0.137;
20200827_155642;-0.314;7.288;8.128;0.015;0.086;0.109;
20200827_155642;1.032;6.213;6.007;0.032;-0.010;0.028;
20200827_155642;0.462;7.547;10.125;0.021;0.043;-0.123;
20200827_155642;0.599;7.080;8.801;0.014;-0.013;-0.064;
20200827_155642;0.007;5.995;6.773;0.003;-0.025;-0.073;
20200827_155642;0.031;6.498;8.672;0.034;-0.084;-0.044;
20200827_155642;0.132;4.858;5.430;0.017;-0.051;0.049;
20200827_155642;-2.054;6.014;6.397;0.002;0.046;0.077;
20200827_155643;0.369;6.953;8.035;0.008;-0.041;0.109;
20200827_155643;1.573;4.611;6.218;-0.019;0.014;0.139;
20200827_155643;1.882;7.618;9.251;-0.044;-0.100;-0.197;
20200827_155643;0.694;6.773;6.340;-0.036;-0.053;-0.025;
20200827_155643;-0.160;5.454;7.293;-0.009;0.055;0.196;
20200827_155643;0.644;8.370;6.953;-0.021;0.047;0.272;
20200827_155643;-0.472;6.455;4.223;0.016;0.196;0.217;
20200827_155643;0.357;6.302;6.464;0.037;0.183;0.171;
20200827_155643;2.148;7.767;8.346;-0.008;0.166;0.002;
20200827_155644;0.754;6.208;4.271;-0.020;0.100;-0.113;
20200827_155644;1.293;6.433;9.845;0.003;-0.077;-0.326;
20200827_155644;-0.587;5.997;4.666;0.025;-0.106;-0.240;
20200827_155644;-0.455;6.079;7.944;0.044;-0.171;-0.132;
20200827_155644;-1.257;6.780;8.258;-0.032;-0.188;0.141;
20200827_155644;0.050;6.292;4.767;-0.019;-0.055;0.431;
20200827_155644;0.907;8.923;8.176;-0.036;0.067;0.395;
20200827_155644;1.336;5.550;2.258;0.104;0.214;0.255;
20200827_155644;0.144;6.867;8.995;0.019;0.168;0.002;
20200827_155644;0.771;4.853;8.164;-0.049;0.106;-0.079;
20200827_155645;-0.369;8.047;6.792;0.030;0.246;0.104;
20200827_155645;-2.605;7.925;3.043;0.071;0.299;0.174;
20200827_155645;-0.074;7.219;8.215;-0.011;0.111;-0.101;
20200827_155645;0.141;8.612;8.471;0.025;-0.014;-0.291;
20200827_155645;0.421;4.628;4.597;-0.007;-0.085;-0.201;
20200827_155645;0.244;6.943;7.331;-0.041;-0.138;-0.106;
20200827_155645;1.056;7.195;5.021;-0.015;-0.142;0.072;
20200827_155645;0.311;7.987;9.074;0.016;-0.078;0.049;
20200827_155645;-0.455;4.020;8.612;-0.024;0.126;0.276;
20200827_155645;0.498;8.246;7.372;0.060;0.242;0.203;
20200827_155646;1.748;8.950;7.568;0.060;0.123;-0.236;
20200827_155646;-0.390;7.508;5.986;-0.067;-0.030;-0.368;
20200827_155646;-2.780;4.626;4.393;0.113;0.029;0.020;
20200827_155646;0.728;7.072;7.870;0.009;-0.048;0.047;
20200827_155646;-0.685;5.760;3.955;0.074;-0.040;-0.065;
20200827_155646;0.438;8.116;9.134;0.013;-0.084;-0.066;
20200827_155646;1.104;7.479;7.032;-0.076;-0.123;-0.104;
20200827_155646;-1.551;8.282;9.723;-0.038;-0.047;0.057;
20200827_155646;-0.194;6.582;9.304;-0.010;0.044;0.363;
20200827_155647;1.343;6.433;2.440;0.060;0.164;0.088;
20200827_155647;0.347;7.400;8.068;-0.021;0.174;-0.020;
20200827_155647;-0.041;11.258;6.223;0.050;0.098;-0.183;
20200827_155647;0.338;5.969;10.558;-0.017;0.023;-0.232;
20200827_155647;-1.319;6.445;6.421;0.036;-0.024;-0.145;
20200827_155647;0.369;3.354;6.354;0.007;-0.092;-0.045;
20200827_155647;-1.065;8.550;7.336;-0.041;-0.110;0.029;
20200827_155647;2.526;6.472;7.645;-0.003;-0.042;0.137;
20200827_155647;0.469;3.699;5.672;-0.025;0.019;-0.064;
20200827_155647;1.159;6.744;4.204;0.030;0.011;-0.150;
20200827_155648;1.128;8.167;9.598;-0.031;-0.028;-0.146;
20200827_155648;-0.493;6.225;3.634;-0.001;0.078;0.013;
20200827_155648;0.244;3.788;6.907;-0.079;-0.049;-0.016;
20200827_155648;-0.409;4.652;4.980;0.020;-0.080;-0.066;
20200827_155648;0.740;8.825;8.473;0.041;-0.251;-0.102;
20200827_155648;-2.315;7.027;7.918;0.048;-0.058;0.271;
20200827_155648;1.796;8.988;9.050;-0.033;-0.154;0.111;
20200827_155648;1.013;5.509;9.979;-0.004;-0.038;0.076;
20200827_155648;-0.194;5.229;4.597;-0.048;-0.003;0.248;
20200827_155649;2.243;4.310;5.653;0.054;-0.029;-0.072;
20200827_155649;-0.792;8.983;6.448;0.088;-0.048;0.013;
20200827_155649;-1.130;5.499;7.321;-0.032;-0.095;0.296;
20200827_155649;-0.144;7.432;7.599;0.019;0.039;0.473;
20200827_155649;0.189;8.028;10.175;0.072;0.217;0.402;
20200827_155649;1.973;5.801;9.412;0.074;0.085;-0.069;
20200827_155649;0.393;6.929;7.657;-0.012;0.102;-0.101;
20200827_155649;0.230;4.982;8.315;-0.046;0.072;-0.018;
20200827_155649;-0.211;6.347;7.300;0.021;0.190;0.158;
20200827_155649;1.717;5.176;7.135;-0.052;0.111;-0.042;
20200827_155650;0.242;5.758;3.189;0.014;0.098;-0.064;
20200827_155650;0.005;7.479;9.649;-0.051;0.130;-0.010;
20200827_155650;0.316;7.968;7.556;-0.034;0.148;-0.012;
20200827_155650;1.235;4.934;7.829;0.014;0.105;-0.197;
20200827_155650;-0.136;5.442;3.419;0.064;-0.069;-0.273;
20200827_155650;0.680;7.453;9.256;0.034;-0.025;-0.136;
20200827_155650;-0.335;8.171;10.458;-0.016;0.063;-0.058;
20200827_155650;-0.168;4.934;8.655;0.002;0.131;0.027;
20200827_155650;0.156;5.619;4.863;0.008;0.101;-0.157;
20200827_155651;0.692;8.926;7.932;0.020;0.101;-0.284;
20200827_155651;1.535;9.064;9.383;0.047;-0.078;-0.462;
20200827_155651;0.345;7.025;11.418;-0.035;-0.107;-0.472;
20200827_155651;0.962;5.653;8.193;-0.023;-0.292;-0.360;
20200827_155651;-0.814;4.175;6.970;0.062;-0.326;-0.276;
20200827_155651;-0.819;6.972;6.335;0.081;-0.312;0.177;
20200827_155651;-0.871;5.466;5.528;0.079;-0.244;0.313;
20200827_155651;-0.376;4.911;5.452;-0.084;-0.087;0.435;
20200827_155651;0.412;4.623;3.699;0.047;-0.051;0.180;
20200827_155651;1.223;8.011;9.392;0.031;-0.047;0.042;
20200827_155652;-0.769;8.691;7.281;0.006;-0.030;0.021;
20200827_155652;0.472;7.688;9.031;-0.063;0.027;0.181;
20200827_155652;0.297;4.616;6.177;0.035;-0.029;0.008;
20200827_155652;-0.555;6.184;8.097;-0.047;-0.004;0.095;
20200827_155652;-0.843;7.846;8.892;0.028;0.027;0.179;
20200827_155652;-0.706;8.674;10.321;0.025;0.076;0.081;
20200827_155652;1.034;4.867;3.757;0.037;0.076;0.073;
20200827_155652;0.010;5.643;8.492;0.039;-0.006;-0.123;
20200827_155652;1.377;8.466;5.610;-0.036;-0.041;-0.149;
20200827_155652;-0.685;6.014;8.677;0.046;-0.048;-0.061;
20200827_155653;0.273;5.346;6.795;-0.023;-0.095;0.007;
20200827_155653;-0.156;7.757;7.714;0.047;-0.071;0.090;
20200827_155653;-0.405;7.046;9.622;0.033;-0.040;0.195;
20200827_155653;-0.417;5.600;5.983;0.051;0.063;0.325;
20200827_155653;0.237;6.376;7.712;-0.035;0.071;0.239;
20200827_155653;0.378;5.262;4.111;0.023;0.070;0.197;
20200827_155653;1.118;6.871;9.086;0.008;0.133;0.116;
20200827_155653;-0.579;5.042;5.909;0.016;0.224;0.128;
20200827_155653;1.202;5.215;7.096;0.099;0.196;0.102;
20200827_155654;0.510;6.630;8.332;0.102;0.280;0.035;
20200827_155654;0.706;7.647;9.993;0.055;0.242;-0.130;
20200827_155654;0.084;7.163;6.881;0.012;0.134;-0.260;
20200827_155654;0.050;7.714;6.263;0.029;0.052;-0.233;
20200827_155654;-0.206;5.801;8.837;-0.044;-0.037;-0.299;
20200827_155654;0.417;5.550;8.169;-0.012;-0.084;-0.089;
20200827_155654;0.594;7.223;5.916;-0.062;-0.070;-0.150;
20200827_155654;-1.219;0.089;33.081;-0.094;-0.036;-0.082;
20200827_155654;-0.345;-0.165;4.776;-0.165;-0.025;0.097;
20200827_155654;-1.049;19.834;-11.600;0.387;0.143;0.231;
20200827_155655;-2.406;0.280;2.255;0.247;0.098;0.081;
20200827_155655;-0.122;11.533;8.815;0.016;0.096;-0.122;
20200827_155655;-0.383;5.373;3.881;-0.101;-0.102;-0.284;
20200827_155655;0.826;8.440;8.643;-0.008;-0.149;-0.271;
20200827_155655;-0.168;7.724;10.841;-0.009;-0.158;-0.036;
20200827_155655;-3.172;7.922;23.839;0.058;-0.221;0.049;
20200827_155655;1.741;-1.104;8.686;0.326;-0.139;0.297;
20200827_155655;1.317;5.282;6.570;-0.216;-0.117;0.051;
20200827_155655;-0.594;5.516;12.543;-0.034;-0.038;0.019;
20200827_155656;-1.068;6.881;4.719;0.024;0.053;0.121;
20200827_155656;0.441;6.302;7.025;-0.032;0.198;0.198;
20200827_155656;-0.294;7.389;2.545;0.017;0.167;0.055;
20200827_155656;0.555;7.005;14.188;-0.063;0.059;-0.301;
20200827_155656;0.469;6.536;8.674;0.181;-0.194;-0.519;
20200827_155656;-0.512;7.101;6.642;-0.025;-0.191;-0.119;
20200827_155656;-2.277;10.044;12.771;-0.036;-0.140;0.105;
20200827_155656;-2.198;4.635;0.989;0.308;-0.069;0.083;
20200827_155656;0.900;2.538;4.116;0.071;-0.061;0.086;
20200827_155656;-0.201;8.284;5.028;0.069;0.118;0.277;
20200827_155657;0.263;4.197;4.899;0.008;0.184;0.147;
20200827_155657;-0.019;6.594;6.172;-0.086;0.200;-0.103;
20200827_155657;1.073;8.341;5.957;-0.093;0.090;-0.237;
20200827_155657;0.225;6.225;8.258;-0.041;-0.101;-0.457;
20200827_155657;0.309;6.500;8.083;0.041;-0.116;-0.404;
20200827_155657;-0.376;7.068;8.363;0.053;-0.253;-0.170;
20200827_155657;0.424;5.109;8.871;-0.089;-0.245;0.113;
20200827_155657;0.287;6.211;3.371;0.063;-0.130;0.187;
20200827_155657;-0.213;6.725;12.409;-0.010;0.005;0.294;
20200827_155658;2.643;9.761;16.551;-0.047;-0.047;0.104;
20200827_155658;-1.255;3.618;10.896;-0.191;0.079;0.064;
20200827_155658;2.071;12.613;5.739;0.171;0.061;0.190;
20200827_155658;0.529;10.800;8.054;0.072;0.050;0.187;
20200827_155658;1.295;6.807;9.024;0.066;0.051;-0.034;
20200827_155658;-0.634;10.020;9.931;0.020;-0.021;-0.124;
20200827_155658;1.697;4.918;7.894;-0.025;-0.096;-0.086;
20200827_155658;2.025;5.222;6.797;-0.105;-0.093;-0.059;
20200827_155658;-0.955;3.606;1.674;0.115;0.026;0.077;
20200827_155658;-1.487;4.250;6.426;-0.031;0.073;0.195;
20200827_155659;2.916;8.792;5.303;0.094;0.102;-0.078;
20200827_155659;-0.148;11.906;13.405;-0.031;0.037;-0.183;
20200827_155659;0.117;7.034;12.488;-0.014;0.107;0.004;
20200827_155659;1.379;4.673;8.746;-0.178;-0.193;-0.431;
20200827_155659;-0.903;4.578;11.595;0.223;-0.121;0.043;
20200827_155659;0.352;4.695;3.352;0.099;-0.053;0.515;
20200827_155659;0.970;5.080;5.243;-0.045;-0.113;0.220;
20200827_155659;4.061;5.059;10.250;0.113;0.058;0.077;
20200827_155659;-1.652;6.630;5.890;0.122;0.346;0.141;
20200827_155700;1.484;4.489;7.151;-0.084;0.021;-0.564;
20200827_155700;-2.749;6.694;3.802;0.041;-0.004;-0.275;
20200827_155700;-2.591;5.863;4.709;-0.107;-0.042;0.243;
20200827_155700;1.104;3.663;6.900;-0.049;-0.221;0.134;
20200827_155700;-0.910;7.254;8.969;0.124;0.018;0.351;
20200827_155700;3.433;6.014;2.969;-0.019;-0.080;0.213;
20200827_155700;2.342;2.904;10.032;-0.040;0.002;-0.079;
20200827_155700;-0.953;7.415;3.038;0.049;0.228;0.395;
20200827_155700;3.352;8.241;6.299;0.128;0.172;-0.126;
20200827_155701;0.778;13.688;-0.594;0.278;0.161;-0.284;
20200827_155701;-0.831;4.590;8.064;0.178;0.050;-0.300;
20200827_155701;1.592;3.644;6.182;0.163;-0.193;-0.339;
20200827_155701;-0.199;6.776;18.088;-0.060;-0.054;-0.068;
20200827_155701;0.620;-0.314;5.756;0.084;-0.201;0.024;
20200827_155701;0.230;2.947;11.298;-0.084;0.022;0.212;
20200827_155701;1.104;2.344;12.048;-0.091;-0.019;0.117;
20200827_155701;-1.008;8.423;11.231;0.066;0.066;0.032;
20200827_155701;0.474;7.570;8.863;0.037;0.008;-0.225;
20200827_155701;-0.730;6.249;13.994;0.088;-0.106;-0.205;
20200827_155702;1.372;3.074;6.493;-0.011;-0.226;-0.178;
20200827_155702;-0.955;6.297;10.376;-0.085;-0.139;0.179;
20200827_155702;-0.577;3.795;14.928;0.173;0.031;0.271;
20200827_155702;1.587;4.781;7.726;0.013;-0.124;-0.052;
20200827_155702;1.326;7.511;-0.702;0.209;0.123;0.198;
20200827_155702;-0.113;5.950;2.514;0.046;-0.013;-0.088;
20200827_155702;-2.327;6.223;12.936;-0.075;0.115;0.070;
20200827_155702;2.567;4.930;19.410;-0.216;-0.208;-0.153;
20200827_155702;-1.334;8.748;8.507;0.017;-0.136;-0.095;
20200827_155702;1.305;4.944;9.989;-0.072;-0.101;0.376;
20200827_155703;1.183;6.792;4.779;0.073;0.028;0.303;
20200827_155703;0.634;3.970;5.748;-0.028;0.188;0.123;
20200827_155703;0.840;4.525;5.509;0.030;0.119;-0.073;
20200827_155703;-0.151;8.468;2.471;0.011;0.085;-0.132;
20200827_155703;-0.067;3.280;10.159;0.064;0.054;-0.035;
20200827_155703;1.305;5.701;8.207;-0.004;-0.073;-0.105;
20200827_155703;-2.030;6.445;7.355;-0.027;-0.081;0.001;
20200827_155703;-0.357;8.531;7.104;0.082;0.004;0.145;
20200827_155703;-1.116;6.620;10.183;0.021;0.065;0.217;
20200827_155704;-0.153;5.526;13.906;-0.173;0.156;0.093;
20200827_155704;-3.263;4.362;-0.795;0.139;0.079;-0.098;
20200827_155704;-0.828;9.124;27.967;-0.387;0.151;0.337;
20200827_155704;1.621;5.971;7.597;0.002;0.058;-0.071;
20200827_155704;1.472;10.930;5.557;0.181;-0.108;-0.230;
20200827_155704;-1.393;7.063;6.584;0.109;-0.027;-0.064;
20200827_155704;1.563;5.047;7.156;0.018;-0.102;-0.049;
20200827_155704;-0.524;6.914;11.226;0.123;0.091;0.018;
20200827_155704;-0.747;6.788;9.079;-0.011;0.203;0.319;
20200827_155705;1.614;9.194;5.387;0.122;0.043;-0.238;
20200827_155705;1.403;5.349;4.094;0.048;0.073;-0.211;
20200827_155705;-1.939;9.548;5.844;0.084;-0.033;-0.084;
20200827_155705;-2.710;5.028;4.872;0.102;-0.176;-0.072;
20200827_155705;0.084;3.017;7.219;0.026;-0.075;0.252;
20200827_155705;-1.487;10.594;4.314;0.091;-0.081;0.253;
20200827_155705;2.468;3.677;12.972;0.071;-0.078;-0.179;
20200827_155705;-1.288;8.648;7.570;0.026;0.110;0.444;
20200827_155705;0.898;6.761;0.575;-0.019;0.029;0.142;
20200827_155705;0.989;8.832;2.571;0.044;0.091;-0.053;
20200827_155706;-1.882;3.129;9.232;-0.127;0.105;0.051;
20200827_155706;-0.893;7.456;3.139;0.050;-0.046;-0.150;
20200827_155706;-0.256;5.696;7.599;-0.017;0.057;0.072;
20200827_155706;1.255;7.539;4.312;-0.100;-0.063;0.102;
20200827_155706;2.174;6.347;5.938;-0.008;-0.113;-0.267;
20200827_155706;-1.669;5.521;9.572;0.004;0.038;0.291;
20200827_155706;-0.089;5.629;4.628;0.017;0.050;0.193;
20200827_155706;0.168;6.668;7.183;-0.020;0.116;0.051;
20200827_155706;-0.316;6.345;5.758;-0.000;0.111;-0.089;
20200827_155707;1.544;5.990;6.869;0.070;-0.060;-0.094;
20200827_155707;0.338;5.696;6.761;-0.013;-0.112;-0.033;
20200827_155707;-0.357;6.450;3.881;0.024;-0.159;0.166;
20200827_155707;2.770;6.565;7.582;-0.005;-0.158;0.044;
20200827_155707;0.393;5.519;4.307;-0.031;0.065;0.313;
20200827_155707;0.311;8.442;4.654;0.113;0.213;0.219;
20200827_155707;-0.467;4.365;7.951;-0.013;0.265;-0.083;
20200827_155707;0.180;7.441;10.017;-0.018;0.043;-0.273;
20200827_155707;0.328;5.272;9.725;0.028;-0.109;-0.155;
20200827_155708;-0.371;6.177;9.785;0.012;-0.087;0.032;
20200827_155708;-1.377;7.575;7.721;-0.092;-0.101;0.376;
20200827_155708;0.297;6.835;6.184;-0.000;0.039;0.245;
20200827_155708;0.869;6.627;6.598;-0.065;0.222;0.155;
20200827_155708;1.580;6.653;7.621;0.016;0.361;0.018;
20200827_155708;2.150;9.048;11.964;0.077;0.123;-0.563;
20200827_155708;-2.444;5.701;-0.747;0.148;-0.039;0.001;
20200827_155708;-1.796;15.917;5.528;0.271;-0.097;-0.019;
20200827_155708;0.625;1.834;5.808;-0.000;0.020;0.092;
20200827_155708;1.791;3.328;6.788;0.103;0.009;-0.113;
20200827_155709;3.160;7.183;4.123;-0.059;-0.188;-0.455;
20200827_155709;-0.857;9.179;5.744;-0.122;-0.142;-0.107;
20200827_155709;-0.424;4.714;8.981;0.034;-0.141;0.200;
20200827_155709;1.456;5.918;12.696;0.004;0.001;0.255;
20200827_155709;-1.094;7.281;8.006;-0.043;0.026;0.100;
20200827_155709;-2.105;3.048;7.302;-0.002;0.055;0.140;
20200827_155709;1.372;8.595;10.187;0.084;0.022;0.086;
20200827_155709;-1.575;1.276;-13.254;0.173;-0.054;0.053;
20200827_155709;1.765;10.202;11.902;0.089;-0.095;-0.077;
20200827_155709;0.199;9.697;7.829;0.099;-0.036;-0.283;
20200827_155710;-2.255;3.752;11.978;-0.305;0.002;0.233;
20200827_155710;-0.666;5.614;12.105;0.121;0.223;0.485;
20200827_155710;0.656;5.045;7.946;-0.032;0.208;-0.149;
20200827_155710;-0.378;7.879;1.973;0.024;0.216;-0.082;
20200827_155710;0.982;5.437;4.140;0.007;0.005;-0.290;
20200827_155710;-0.043;8.258;5.631;-0.059;-0.013;-0.185;
20200827_155710;-0.148;6.357;10.384;0.012;0.046;0.126;
20200827_155710;0.333;5.782;5.669;-0.036;0.005;-0.122;
20200827_155710;0.424;8.083;3.903;0.019;-0.101;0.010;
20200827_155711;-1.554;5.617;4.676;0.171;0.029;0.102;
20200827_155711;-0.409;5.375;9.136;0.028;0.036;0.146;
20200827_155711;0.500;6.479;5.231;0.044;0.124;0.195;
20200827_155711;1.065;4.429;6.189;0.082;0.020;-0.102;
20200827_155711;0.227;3.982;8.566;-0.086;-0.031;-0.213;
20200827_155711;-0.005;5.753;6.448;-0.015;-0.055;0.099;
20200827_155711;0.177;8.045;5.246;-0.097;-0.002;-0.010;
20200827_155711;0.639;6.596;5.892;-0.012;0.004;0.031;
20200827_155711;0.074;5.782;4.108;0.045;0.038;0.110;
20200827_155712;1.413;3.871;8.935;0.113;-0.029;-0.062;
20200827_155712;-1.693;7.262;8.662;-0.112;0.068;0.047;
20200827_155712;0.189;6.091;7.125;-0.001;0.088;0.196;
20200827_155712;1.018;7.515;13.022;-0.001;-0.030;-0.070;
20200827_155712;-0.560;6.934;7.757;0.165;-0.054;-0.058;
20200827_155712;-0.196;4.920;8.641;0.006;0.021;0.090;
20200827_155712;1.614;6.833;10.135;-0.032;-0.078;0.010;
20200827_155712;-0.838;4.915;6.831;0.072;0.030;0.190;
20200827_155712;-1.587;3.761;10.348;-0.068;0.134;0.353;
20200827_155712;-1.451;7.479;3.553;-0.019;0.369;0.507;
20200827_155713;2.095;6.448;7.290;0.129;0.502;0.149;
20200827_155713;3.474;4.834;12.380;-0.100;0.098;-0.879;
20200827_155713;-2.085;10.309;0.555;-0.059;-0.021;-0.557;
20200827_155713;1.777;7.235;11.969;0.044;-0.234;-0.341;
20200827_155713;-3.886;3.915;10.530;0.118;-0.027;0.159;
20200827_155713;-1.460;4.381;5.636;0.241;-0.144;0.050;
20200827_155713;2.023;0.306;5.583;-0.194;-0.134;0.142;
20200827_155713;3.464;7.286;2.294;-0.070;-0.061;0.100;
20200827_155713;-0.666;8.610;5.574;0.030;-0.092;0.092;
20200827_155714;-0.259;6.112;7.470;-0.069;-0.053;0.197;
20200827_155714;0.587;7.312;9.404;0.025;-0.142;0.131;
20200827_155714;-1.207;9.900;3.713;0.196;0.041;0.261;
20200827_155714;1.417;5.239;7.008;-0.017;-0.036;0.011;
20200827_155714;-0.297;5.986;6.053;-0.004;0.020;0.174;
20200827_155714;1.630;4.994;4.331;0.006;0.041;0.203;
20200827_155714;-0.919;5.705;6.625;0.084;0.057;0.199;
20200827_155714;-0.649;4.944;10.209;-0.014;0.229;0.231;
20200827_155714;0.747;5.966;3.941;0.029;0.216;0.215;
20200827_155714;2.066;5.837;6.242;-0.060;0.039;-0.279;
20200827_155715;0.026;6.474;8.650;0.040;0.177;-0.126;
20200827_155715;0.747;6.175;8.638;0.115;0.022;-0.204;
20200827_155715;2.054;5.152;3.670;0.054;0.103;-0.072;
20200827_155715;1.618;7.156;13.573;-0.128;-0.003;-0.110;
20200827_155715;-0.690;4.793;3.809;-0.033;0.041;-0.123;
20200827_155715;-0.014;5.064;8.339;-0.125;0.018;-0.056;
20200827_155715;0.764;7.389;8.897;-0.052;-0.011;-0.112;
20200827_155715;-1.077;5.392;6.129;0.036;-0.010;0.057;
20200827_155715;0.139;7.204;7.027;-0.057;-0.028;-0.015;
20200827_155716;-0.587;6.155;3.615;-0.066;-0.042;-0.122;
20200827_155716;-1.391;8.037;5.962;0.053;-0.183;0.150;
20200827_155716;-0.706;9.108;4.932;0.057;-0.063;0.242;
20200827_155716;2.693;6.184;2.552;0.047;0.014;0.149;
20200827_155716;0.462;4.113;5.250;0.110;0.111;0.053;
20200827_155716;0.855;4.039;8.873;-0.092;-0.054;-0.169;
20200827_155716;-1.329;5.921;1.518;-0.010;0.156;0.154;
20200827_155716;0.160;6.651;6.254;-0.025;0.096;0.172;
20200827_155716;1.571;7.561;7.958;-0.054;-0.059;-0.345;
20200827_155716;0.323;3.838;3.831;-0.009;-0.108;-0.063;
20200827_155717;-0.376;6.136;6.081;0.050;-0.110;0.037;
20200827_155717;-0.587;8.308;8.698;-0.001;0.026;0.292;
20200827_155717;0.704;6.732;9.182;-0.017;-0.045;0.132;
20200827_155717;0.242;3.845;8.301;-0.077;0.177;0.107;
20200827_155717;0.752;6.357;5.394;0.013;0.169;-0.180;
20200827_155717;-0.151;9.064;9.196;0.003;0.123;-0.182;
20200827_155717;-0.395;6.804;5.780;0.017;0.077;-0.006;
20200827_155717;0.227;5.808;4.587;-0.030;0.022;0.041;
20200827_155717;1.396;7.719;9.084;0.017;-0.111;-0.176;
20200827_155718;-0.977;6.946;5.435;0.131;-0.030;0.125;
20200827_155718;1.061;8.296;6.864;-0.044;-0.053;-0.044;
20200827_155718;0.395;7.511;6.507;0.033;-0.210;-0.044;
20200827_155718;-1.935;3.548;6.926;0.032;0.071;0.336;
20200827_155718;-0.781;8.605;8.334;-0.036;0.231;0.489;
20200827_155718;1.556;7.939;6.941;0.012;0.361;0.252;
20200827_155718;0.397;5.856;4.865;-0.056;0.301;-0.266;
20200827_155718;1.039;6.656;6.062;-0.018;0.167;-0.381;
20200827_155718;2.823;4.310;-1.032;-0.008;-0.160;-0.645;
20200827_155718;0.079;1.097;-5.373;0.380;-0.375;-0.519;
20200827_155719;0.536;9.967;-4.096;0.019;-0.448;0.166;
20200827_155719;1.597;-2.454;3.998;-0.091;-0.364;0.505;
20200827_155719;0.675;5.614;9.036;-0.063;0.026;0.558;
20200827_155719;0.414;9.936;25.448;-0.090;0.019;0.172;
20200827_155719;2.385;1.247;3.393;-0.175;0.159;0.118;
20200827_155719;2.746;4.240;4.906;0.015;0.164;0.095;
20200827_155719;-0.409;5.557;4.096;-0.034;0.222;0.007;
20200827_155719;1.717;5.770;7.005;0.044;-0.074;-0.319;
20200827_155719;-0.776;4.978;3.500;0.094;0.041;-0.015;
20200827_155720;0.857;6.440;6.342;-0.036;-0.056;0.127;
20200827_155720;-0.915;5.150;7.683;0.018;0.096;0.095;
20200827_155720;0.532;7.654;10.894;0.005;0.066;-0.041;
20200827_155720;-0.067;3.685;5.662;-0.051;0.038;-0.118;
20200827_155720;0.524;5.231;5.045;-0.054;0.003;-0.067;
20200827_155720;0.405;8.686;8.497;0.008;0.035;0.035;
20200827_155720;0.400;6.297;6.950;0.072;0.013;0.018;
20200827_155720;0.503;5.552;11.332;-0.049;0.034;0.063;
20200827_155720;1.671;3.491;4.197;-0.000;0.040;-0.127;
20200827_155721;0.831;2.648;8.605;-0.097;-0.030;-0.196;
20200827_155721;-0.144;3.972;4.283;-0.049;-0.049;-0.161;
20200827_155721;0.424;6.464;6.400;-0.016;-0.088;0.036;
20200827_155721;0.455;7.151;6.838;0.028;0.050;0.202;
20200827_155721;0.663;4.317;5.502;-0.059;0.108;0.095;
20200827_155721;1.592;6.230;6.218;-0.067;0.098;-0.039;
20200827_155721;0.522;7.956;8.226;0.053;-0.053;-0.279;
20200827_155721;-0.745;5.930;6.627;0.100;-0.105;-0.255;
20200827_155721;-0.730;5.626;4.851;-0.032;-0.110;0.244;
20200827_155721;-0.359;7.211;7.058;-0.044;-0.054;0.144;
20200827_155722;1.542;4.796;8.432;-0.057;-0.078;0.191;
20200827_155722;1.341;5.212;2.519;0.061;-0.019;0.099;
20200827_155722;-0.283;6.689;7.350;-0.020;0.031;0.139;
20200827_155722;-0.488;4.515;8.135;-0.002;0.131;0.166;
20200827_155722;1.769;5.198;4.008;0.056;0.221;0.044;
20200827_155722;1.305;6.567;8.260;-0.084;0.140;-0.105;
20200827_155722;0.170;5.837;8.531;-0.027;0.198;-0.037;
20200827_155722;0.910;5.040;3.651;0.038;0.142;-0.284;
20200827_155722;1.970;5.849;5.430;-0.029;-0.167;-0.619;
20200827_155723;-2.263;6.376;3.922;0.231;-0.188;-0.299;
20200827_155723;-2.459;17.063;12.467;-0.054;-0.180;0.238;
20200827_155723;-1.779;10.882;6.211;-0.019;-0.171;0.512;
20200827_155723;4.568;8.495;5.416;0.133;-0.027;0.254;
20200827_155723;-0.819;8.078;8.665;0.013;0.110;-0.003;
20200827_155723;1.451;7.242;5.377;-0.002;0.033;-0.002;
20200827_155723;0.318;7.187;8.212;0.055;0.061;-0.093;
20200827_155723;-0.189;6.409;7.041;0.056;0.087;-0.006;
20200827_155723;-0.230;5.416;5.411;0.039;0.050;-0.045;
20200827_155723;0.795;7.070;7.879;0.013;-0.079;-0.227;
20200827_155724;0.057;4.769;7.228;-0.060;-0.277;-0.224;
20200827_155724;-1.207;7.817;7.254;0.089;-0.092;0.374;
20200827_155724;0.225;6.191;5.265;0.086;-0.064;0.249;
20200827_155724;0.426;8.260;8.973;-0.047;0.029;0.157;
20200827_155724;0.306;7.456;6.314;0.012;0.081;0.176;
20200827_155724;0.666;5.164;5.205;0.075;0.075;0.021;
20200827_155724;0.862;8.995;7.757;0.033;0.034;-0.010;
20200827_155724;0.790;6.900;6.689;0.030;-0.016;0.033;
20200827_155724;-0.084;5.741;5.013;0.019;-0.014;0.099;
20200827_155725;-0.532;3.972;6.158;0.018;0.047;0.215;
20200827_155725;-0.642;7.039;9.629;0.033;0.089;0.162;
20200827_155725;0.819;4.319;6.088;0.111;0.107;0.072;
20200827_155725;0.895;6.742;5.816;0.016;0.086;-0.041;
20200827_155725;0.821;7.010;7.065;0.026;0.060;-0.159;
20200827_155725;-0.261;4.908;6.577;0.006;-0.003;-0.147;
20200827_155725;-0.153;9.764;7.355;-0.020;0.067;0.121;
20200827_155725;-0.165;6.440;7.566;0.016;0.067;0.181;
20200827_155725;0.558;5.174;6.278;0.048;0.098;0.018;
20200827_155726;0.912;9.158;7.956;0.007;0.066;-0.086;
20200827_155726;-1.034;5.124;24.205;-0.344;0.085;-0.091;
20200827_155726;-2.014;4.542;1.583;0.031;-0.062;-0.016;
20200827_155726;-1.633;-3.519;6.302;-0.694;-0.126;-0.047;
20200827_155726;-1.475;3.103;1.982;0.078;-0.171;0.282;
20200827_155726;-1.410;0.551;6.993;-0.131;-0.057;0.385;
20200827_155726;0.263;5.140;7.606;-0.048;0.130;0.554;
20200827_155726;2.014;4.319;6.716;0.146;0.122;0.088;
20200827_155726;0.785;2.136;7.137;0.060;0.125;-0.058;
20200827_155726;0.010;7.731;5.025;0.045;0.159;0.158;
20200827_155727;0.804;9.838;8.435;-0.002;0.330;0.166;
20200827_155727;0.297;8.140;5.739;0.084;0.324;-0.053;
20200827_155727;-0.589;6.270;5.545;-0.020;0.296;-0.265;
20200827_155727;1.202;8.025;10.187;0.013;0.198;-0.291;
20200827_155727;0.699;5.476;8.430;-0.031;0.124;-0.443;
20200827_155727;-0.026;5.181;9.498;-0.044;0.012;-0.417;
20200827_155727;1.844;8.650;6.076;0.056;-0.214;-0.587;
20200827_155727;0.651;6.304;6.665;0.028;-0.127;-0.189;
20200827_155727;-0.924;4.726;10.111;-0.034;-0.020;0.095;
20200827_155728;0.072;4.140;5.933;-0.026;0.052;-0.147;
20200827_155728;1.089;5.918;7.673;-0.018;-0.097;-0.278;
20200827_155728;1.463;9.148;7.408;0.060;-0.076;-0.313;
20200827_155728;-0.661;8.155;7.319;-0.017;-0.166;-0.143;
20200827_155728;2.136;6.895;9.701;0.052;-0.324;-0.157;
20200827_155728;-1.527;8.622;6.251;0.074;-0.326;-0.126;
20200827_155728;0.062;5.492;11.222;0.023;-0.330;0.270;
20200827_155728;-1.032;5.509;4.345;-0.005;-0.300;0.314;
20200827_155728;0.081;7.539;6.675;-0.034;-0.156;0.270;
20200827_155728;-0.057;7.037;11.382;-0.053;-0.047;0.439;
20200827_155729;-0.941;5.535;5.906;0.127;0.241;0.699;
20200827_155729;2.243;5.382;7.898;0.040;0.375;0.083;
20200827_155729;1.899;10.781;8.803;-0.078;0.428;-0.320;
20200827_155729;1.611;4.693;6.967;-0.005;0.126;-0.825;
20200827_155729;1.331;6.493;7.252;0.020;-0.277;-0.857;
20200827_155729;-1.360;5.854;9.711;0.033;-0.154;-0.192;
20200827_155729;0.692;4.204;4.702;0.028;-0.234;-0.066;
20200827_155729;-0.601;10.290;4.757;0.012;-0.176;-0.050;
20200827_155729;1.652;8.250;8.813;-0.097;-0.249;-0.067;
20200827_155730;0.702;6.282;7.659;0.024;-0.129;0.160;
20200827_155730;-0.512;3.754;6.788;0.060;0.023;0.075;
20200827_155730;0.460;7.645;3.227;0.049;-0.073;-0.116;
20200827_155730;0.601;7.084;6.306;0.022;-0.077;0.065;
20200827_155730;0.505;3.982;11.404;-0.028;-0.139;0.004;
20200827_155730;-0.211;3.984;5.660;-0.001;-0.078;-0.020;
20200827_155730;0.199;6.519;8.935;-0.018;-0.157;-0.003;
20200827_155730;-0.292;8.104;6.328;-0.087;-0.176;0.135;
20200827_155730;0.012;5.930;10.362;-0.034;-0.087;0.242;
20200827_155731;-1.980;4.860;8.030;-0.064;0.044;0.255;
20200827_155731;0.864;6.539;6.404;0.008;0.095;0.254;
20200827_155731;0.903;8.071;6.938;0.045;0.050;-0.024;
20200827_155731;-0.235;6.397;9.761;-0.043;0.117;0.066;
20200827_155731;0.414;7.963;3.661;0.103;-0.022;-0.051;
20200827_155731;0.311;3.237;5.205;0.046;-0.041;-0.017;
20200827_155731;-0.031;8.315;4.853;-0.001;-0.120;0.099;
20200827_155731;0.491;9.859;7.843;-0.094;-0.067;0.193;
20200827_155731;0.852;6.373;7.199;-0.012;-0.081;0.172;
20200827_155731;-0.792;7.597;5.262;0.006;0.068;0.318;
20200827_155732;1.118;9.723;6.570;0.101;0.174;0.325;
20200827_155732;1.310;7.400;7.633;0.020;0.207;0.064;
20200827_155732;0.905;9.297;3.946;0.097;0.194;0.086;
20200827_155732;0.357;9.232;7.685;0.073;0.122;-0.051;
20200827_155732;0.922;6.155;5.878;-0.014;0.098;0.029;
20200827_155732;0.069;9.629;3.261;0.013;0.139;-0.035;
20200827_155732;0.589;8.341;4.480;-0.003;0.116;-0.023;
20200827_155732;1.748;7.434;5.418;-0.040;0.016;-0.273;
20200827_155732;0.170;5.442;13.556;0.081;0.110;-0.162;
20200827_155733;0.996;6.103;8.207;-0.038;0.034;-0.078;
20200827_155733;-0.275;5.923;8.054;-0.046;0.044;-0.152;
20200827_155733;-1.870;7.295;4.240;0.060;0.016;0.003;
20200827_155733;-0.199;6.833;7.676;-0.011;0.020;0.108;
20200827_155733;1.046;5.904;8.614;0.011;-0.058;-0.058;
20200827_155733;0.697;4.841;10.810;0.028;-0.067;-0.104;
20200827_155733;-0.419;4.741;8.780;-0.012;-0.059;-0.021;
20200827_155733;1.358;6.230;6.701;-0.004;-0.136;-0.089;
20200827_155733;1.269;4.518;8.825;-0.009;-0.039;0.082;
20200827_155733;0.924;6.967;6.548;-0.029;0.002;0.245;
20200827_155734;1.290;7.137;3.479;0.019;0.034;0.110;
20200827_155734;1.326;8.018;7.736;-0.106;0.003;-0.034;
20200827_155734;-2.143;6.922;7.180;0.035;0.043;0.174;
20200827_155734;-0.302;3.802;10.410;0.107;-0.026;0.123;
20200827_155734;-0.457;3.869;6.555;-0.054;0.045;0.031;
20200827_155734;1.240;6.076;7.944;-0.073;-0.080;-0.036;
20200827_155734;1.623;7.518;4.592;-0.068;-0.179;-0.184;
20200827_155734;-1.822;5.104;1.118;-0.011;0.084;0.284;
20200827_155734;-0.848;3.294;-5.035;0.940;0.310;0.372;
20200827_155735;0.388;8.780;11.236;-0.221;0.155;-0.287;
20200827_155735;-0.788;6.874;5.969;-0.115;0.142;-0.246;
20200827_155735;-0.512;6.867;4.793;0.068;0.034;-0.132;
20200827_155735;-0.333;4.939;5.904;-0.037;-0.107;-0.334;
20200827_155735;-1.396;7.101;4.508;0.054;-0.036;0.067;
20200827_155735;1.298;6.021;7.865;0.056;-0.136;-0.020;
20200827_155735;-1.099;6.519;6.256;-0.018;-0.089;-0.049;
20200827_155735;2.203;6.737;6.843;0.042;0.029;0.117;
20200827_155735;-1.085;5.270;9.479;-0.061;-0.046;0.068;
20200827_155736;0.031;7.992;9.079;-0.016;0.133;0.106;
20200827_155736;-1.477;8.562;7.707;-0.011;0.219;0.066;
20200827_155736;3.057;5.658;6.258;-0.114;-0.069;-0.339;
20200827_155736;-0.766;6.558;10.369;0.022;-0.140;-0.301;
20200827_155736;-1.240;6.613;6.752;0.042;-0.077;0.184;
20200827_155736;-0.500;5.128;8.571;0.056;-0.004;0.191;
20200827_155736;1.616;7.070;5.148;-0.048;-0.056;-0.006;
20200827_155736;0.048;3.862;7.556;0.064;0.038;-0.005;
20200827_155736;2.124;7.353;5.543;-0.015;0.023;-0.029;
20200827_155736;1.106;7.805;7.250;0.032;0.112;0.040;
20200827_155737;1.180;8.394;4.587;-0.008;-0.018;-0.269;
20200827_155737;-0.520;5.863;4.913;-0.034;-0.045;-0.144;
20200827_155737;0.081;6.639;6.376;0.024;-0.106;0.068;
20200827_155737;0.381;4.618;9.479;-0.068;-0.079;0.186;
20200827_155737;-1.176;6.182;10.036;-0.059;-0.021;0.184;
20200827_155737;2.133;7.465;6.539;-0.029;-0.151;-0.136;
20200827_155737;0.407;5.804;6.771;-0.129;-0.053;-0.016;
20200827_155737;-0.685;6.306;7.827;-0.004;0.029;0.139;
20200827_155737;0.630;7.161;7.027;-0.019;0.055;0.024;
20200827_155738;0.038;5.406;9.397;-0.048;0.034;-0.072;
20200827_155738;0.163;6.859;7.894;-0.010;0.002;0.060;
20200827_155738;-0.014;5.801;8.203;0.053;-0.000;-0.062;
20200827_155738;0.151;7.022;10.259;0.117;-0.048;-0.056;
20200827_155738;0.144;3.338;4.061;0.019;-0.025;0.085;
20200827_155738;0.077;8.818;5.136;0.062;0.025;0.225;
20200827_155738;0.955;7.875;9.917;-0.011;0.019;0.026;
20200827_155738;-0.089;4.932;7.350;-0.043;0.050;0.019;
20200827_155738;0.211;6.349;8.983;0.042;0.125;0.003;
20200827_155738;-0.627;5.528;4.247;0.099;0.158;0.024;
20200827_155739;0.381;6.596;7.274;-0.004;0.157;-0.116;
20200827_155739;1.168;3.874;5.497;-0.036;0.005;-0.450;
20200827_155739;-0.206;4.784;5.775;-0.026;0.042;-0.152;
20200827_155739;0.115;5.222;5.389;-0.092;-0.121;-0.205;
20200827_155739;1.049;10.077;14.099;0.077;-0.157;-0.333;
20200827_155739;-1.235;6.388;7.072;0.279;-0.141;-0.049;
20200827_155739;-0.630;6.048;4.302;0.052;-0.068;0.082;
20200827_155739;0.551;7.238;5.643;0.084;-0.037;-0.002;
20200827_155739;-0.136;6.448;9.153;0.034;-0.133;-0.169;
20200827_155740;-0.759;5.124;10.788;-0.102;-0.052;0.065;
20200827_155740;0.292;6.615;9.081;-0.040;-0.203;-0.113;
20200827_155740;-0.668;6.744;6.701;0.008;-0.090;0.135;
20200827_155740;0.335;6.129;5.600;0.085;-0.110;0.188;
20200827_155740;0.122;6.258;7.468;-0.060;-0.003;0.160;
20200827_155740;0.151;4.511;9.357;-0.073;-0.043;0.003;
20200827_155740;0.967;5.181;9.778;0.025;0.075;0.041;
20200827_155740;0.338;7.920;8.049;0.035;-0.036;-0.133;
20200827_155740;-1.832;5.454;6.974;0.069;0.031;0.052;
20200827_155741;-0.883;7.357;9.191;-0.023;0.011;0.017;
20200827_155741;0.450;6.230;6.199;0.008;0.024;-0.096;
20200827_155741;0.338;4.092;5.109;0.032;-0.013;-0.072;
20200827_155741;-0.352;5.863;4.899;0.037;-0.041;0.030;
20200827_155741;-0.050;5.150;8.885;0.035;0.058;0.080;
20200827_155741;1.085;9.670;11.854;0.017;0.071;-0.014;
20200827_155741;2.179;4.353;3.122;-0.048;0.047;-0.145;
20200827_155741;0.919;5.179;7.870;-0.031;-0.077;-0.374;
20200827_155741;-0.271;6.934;9.565;0.079;-0.035;-0.271;
20200827_155741;-1.470;7.468;7.190;0.074;-0.189;-0.130;
20200827_155742;-0.247;5.148;8.619;-0.040;-0.109;0.213;
20200827_155742;-0.338;7.760;12.280;0.016;-0.040;0.109;
20200827_155742;-0.139;4.678;7.609;0.062;-0.026;0.048;
20200827_155742;0.196;5.626;7.128;0.035;0.016;0.008;
20200827_155742;2.289;7.863;7.412;0.136;-0.125;-0.276;
20200827_155742;0.630;4.707;6.280;0.035;-0.094;-0.156;
20200827_155742;-0.034;5.567;6.041;-0.013;-0.033;-0.049;
20200827_155742;1.168;7.331;6.227;0.005;-0.054;-0.065;
20200827_155742;-1.015;4.484;3.666;0.102;0.050;0.032;
20200827_155743;-0.065;5.947;5.461;-0.103;0.055;0.095;
20200827_155743;0.575;7.298;8.435;-0.015;0.027;-0.195;
20200827_155743;-0.261;7.403;6.795;0.106;-0.074;-0.283;
20200827_155743;-0.120;5.516;6.421;-0.045;-0.079;-0.017;
20200827_155743;-0.678;5.988;8.614;0.005;-0.044;0.014;
20200827_155743;0.685;8.796;10.350;0.042;-0.085;-0.094;
20200827_155743;0.548;6.366;8.765;-0.074;-0.095;-0.204;
20200827_155743;0.706;5.772;6.062;0.014;-0.212;-0.232;
20200827_155743;-0.407;7.942;7.187;0.062;0.036;0.070;
20200827_155743;0.733;6.270;8.849;0.061;-0.080;-0.159;
20200827_155744;-2.088;5.423;4.255;0.046;-0.061;-0.113;
20200827_155744;-0.139;7.022;10.372;-0.101;-0.234;-0.041;
20200827_155744;0.395;7.817;8.957;-0.065;-0.196;0.041;
20200827_155744;0.433;6.539;10.910;-0.016;-0.163;0.135;
20200827_155744;1.508;5.792;2.976;0.024;-0.172;0.066;
20200827_155744;-0.424;5.950;3.019;-0.102;-0.155;-0.086;
20200827_155744;-0.060;2.981;5.636;0.039;0.025;0.088;
20200827_155744;-1.559;7.551;5.262;0.044;0.190;0.257;
20200827_155744;1.061;5.571;5.765;0.028;0.153;-0.153;
20200827_155745;0.017;7.796;4.441;-0.018;0.029;-0.263;
20200827_155745;-0.692;7.281;7.740;0.063;-0.012;0.014;
20200827_155745;0.723;3.311;7.872;0.040;-0.014;-0.032;
20200827_155745;-2.710;9.364;10.621;0.012;0.017;-0.044;
20200827_155745;0.481;8.092;10.774;-0.111;0.013;0.069;
20200827_155745;1.420;7.479;5.662;-0.021;-0.072;-0.194;
20200827_155745;1.516;7.559;11.578;-0.093;-0.216;-0.418;
20200827_155745;-2.617;4.508;5.825;-0.012;0.067;0.190;
20200827_155745;2.114;5.794;5.804;-0.067;0.104;0.015;
20200827_155745;2.990;4.978;-1.310;-0.166;-0.104;-0.464;
20200827_155746;-2.950;3.555;2.751;0.788;-0.100;-0.652;
20200827_155746;-3.998;3.211;-0.115;0.061;-0.135;0.097;
20200827_155746;-3.136;6.189;1.346;-0.132;0.004;-0.031;
20200827_155746;0.237;10.781;8.320;0.048;-0.410;-0.138;
20200827_155746;0.254;6.175;4.247;-0.015;-0.222;0.149;
20200827_155746;0.567;4.750;5.255;0.017;-0.125;0.112;
20200827_155746;-1.779;6.570;7.082;0.030;-0.111;0.143;
20200827_155746;2.248;6.201;7.444;0.169;-0.088;0.268;
20200827_155746;-0.709;2.806;6.766;0.040;0.103;0.182;
20200827_155747;-0.280;5.808;5.018;-0.017;0.050;0.021;
20200827_155747;-1.037;6.172;8.610;0.013;-0.061;-0.097;
20200827_155747;0.948;2.169;4.626;0.073;-0.141;-0.005;
20200827_155747;-0.888;5.849;5.224;-0.015;-0.037;0.229;
20200827_155747;-0.460;8.672;7.228;0.058;0.036;0.291;
20200827_155747;1.413;7.089;9.443;-0.001;0.027;-0.005;
20200827_155747;1.020;4.082;5.988;-0.056;0.061;-0.191;
20200827_155747;0.230;8.363;7.817;0.070;0.026;-0.042;
20200827_155747;-1.025;3.275;1.796;0.164;0.133;-0.018;
20200827_155747;0.201;10.865;8.629;-0.013;0.136;-0.124;
20200827_155748;1.267;7.099;7.384;-0.094;-0.002;-0.204;
20200827_155748;-0.055;8.588;10.693;-0.026;0.020;-0.173;
20200827_155748;-0.891;7.834;7.637;0.034;-0.082;-0.306;
20200827_155748;0.843;2.794;2.500;-0.064;-0.119;-0.078;
20200827_155748;0.352;5.837;4.140;-0.078;-0.128;0.012;
20200827_155748;2.282;3.146;7.609;0.025;-0.069;-0.147;
20200827_155748;1.954;-5.631;9.266;-0.287;-0.090;-0.212;
20200827_155748;1.180;3.984;1.827;0.035;-0.166;-0.126;
20200827_155748;-0.321;5.001;6.625;0.031;0.090;0.122;
20200827_155749;-1.630;5.732;2.816;-0.012;0.029;0.064;
20200827_155749;2.155;8.164;7.525;0.005;-0.171;-0.191;
20200827_155749;-1.338;6.132;6.618;0.006;-0.205;0.017;
20200827_155749;-1.855;8.487;11.562;-0.023;-0.118;0.411;
20200827_155749;0.211;7.966;6.874;-0.019;-0.014;0.429;
20200827_155749;2.799;6.812;10.355;-0.032;0.058;0.070;
20200827_155749;-1.908;8.602;10.087;-0.014;0.221;-0.106;
20200827_155749;1.006;7.312;5.607;0.054;0.187;0.023;
20200827_155749;1.008;5.004;8.600;-0.084;0.206;-0.202;
20200827_155750;-0.204;7.058;4.111;-0.054;0.130;-0.094;
20200827_155750;2.114;5.636;9.395;0.036;-0.020;-0.379;
20200827_155750;-1.183;3.522;5.715;-0.047;-0.105;-0.303;
20200827_155750;0.151;4.264;4.501;0.007;-0.207;-0.252;
20200827_155750;0.548;6.124;5.284;-0.026;-0.188;0.069;
20200827_155750;4.678;4.123;0.098;0.365;-0.093;-0.080;
20200827_155750;-0.565;2.227;4.654;0.328;-0.000;0.354;
20200827_155750;-0.429;1.056;7.772;-0.222;0.127;0.076;
20200827_155750;0.429;7.013;1.671;-0.024;0.100;0.034;
20200827_155750;-0.287;9.268;5.897;-0.004;0.057;-0.157;
20200827_155751;0.448;6.177;7.846;-0.018;-0.129;-0.187;
20200827_155751;-0.735;8.701;5.610;0.032;-0.144;-0.029;
20200827_155751;-2.792;8.440;6.692;0.061;0.017;0.289;
20200827_155751;0.587;5.255;7.039;0.021;-0.100;0.081;
20200827_155751;1.810;2.665;4.233;-0.057;-0.039;0.140;
20200827_155751;-0.735;5.126;10.590;-0.125;0.071;0.014;
20200827_155751;0.802;6.879;12.072;0.041;0.069;0.145;
20200827_155751;1.118;6.213;9.720;-0.062;0.124;0.012;
20200827_155751;-1.518;4.523;7.889;0.007;0.176;0.020;
20200827_155752;1.128;9.345;9.577;-0.035;0.033;-0.078;
20200827_155752;-0.421;3.694;5.614;-0.037;0.058;-0.116;
20200827_155752;0.412;6.424;7.626;-0.004;-0.101;-0.095;
20200827_155752;-1.458;5.052;6.325;-0.025;-0.030;0.088;
20200827_155752;-0.038;10.163;9.009;0.047;-0.055;0.092;
20200827_155752;0.251;8.298;8.226;-0.041;0.011;0.059;
20200827_155752;0.299;6.586;9.160;-0.009;0.144;0.175;
20200827_155752;2.298;10.262;10.843;-0.070;0.098;-0.168;
20200827_155752;0.285;6.977;7.460;0.023;0.071;-0.044;
20200827_155752;-1.094;3.481;5.547;-0.002;0.134;-0.040;
20200827_155753;0.809;7.135;6.031;0.025;0.014;-0.162;
20200827_155753;0.026;6.768;7.070;-0.066;-0.041;-0.155;
20200827_155753;-1.334;4.693;5.296;-0.021;0.026;0.009;
20200827_155753;0.192;9.313;10.271;0.014;-0.094;-0.086;
20200827_155753;0.512;14.569;27.162;0.029;-0.208;-0.212;
20200827_155753;-0.510;-0.572;8.133;0.116;0.056;0.172;
20200827_155753;-0.007;6.364;-0.795;-0.040;-0.114;0.055;
20200827_155753;1.216;8.760;8.724;-0.048;-0.035;0.081;
20200827_155753;-1.877;3.417;6.191;0.020;-0.096;0.154;
20200827_155754;-0.958;5.921;8.262;0.103;0.018;0.366;
20200827_155754;-1.717;6.632;12.167;-0.216;-0.008;0.057;
20200827_155754;0.515;6.440;1.053;0.192;-0.015;0.149;
20200827_155754;-1.602;7.290;8.183;-0.226;-0.016;0.475;
20200827_155754;0.754;5.746;7.566;-0.029;0.092;0.403;
20200827_155754;2.433;2.243;10.621;-0.194;-0.100;0.076;
20200827_155754;-2.744;5.195;6.845;-0.168;0.206;0.521;
20200827_155754;2.342;8.492;4.673;0.150;0.151;0.417;
20200827_155754;0.450;8.734;3.804;0.071;0.457;0.445;
20200827_155755;-1.142;2.478;3.153;-0.237;0.442;0.151;
20200827_155755;1.894;13.247;20.437;-0.225;0.174;-0.462;
20200827_155755;-2.049;3.412;3.589;0.474;0.269;-0.086;
20200827_155755;-4.386;5.590;10.762;0.302;0.386;0.206;
20200827_155755;0.869;7.082;6.855;-0.048;0.185;-0.010;
20200827_155755;4.336;2.698;5.914;0.029;0.164;-0.413;
20200827_155755;-1.211;5.057;8.387;-0.024;-0.061;-0.569;
20200827_155755;-0.618;4.621;7.472;-0.057;0.070;0.095;
20200827_155755;-1.051;4.867;3.462;0.069;0.051;-0.010;
20200827_155756;-0.927;5.495;7.262;-0.028;0.003;0.108;
20200827_155756;0.479;5.997;11.037;-0.085;0.018;-0.024;
20200827_155756;-0.972;4.226;4.276;0.153;-0.040;-0.033;
20200827_155756;-0.050;7.963;9.213;-0.027;-0.098;-0.050;
20200827_155756;-0.941;6.036;5.930;0.007;-0.012;0.183;
20200827_155756;0.414;5.636;2.902;0.083;0.028;-0.132;
20200827_155756;1.432;4.149;11.260;-0.099;-0.041;0.000;
20200827_155756;1.542;11.866;9.483;-0.076;-0.245;0.097;
20200827_155756;-0.381;7.738;6.529;0.234;-0.073;0.296;
20200827_155756;0.134;7.015;5.389;0.120;0.061;0.222;
20200827_155757;1.362;3.000;5.847;0.058;0.079;0.097;
20200827_155757;0.299;9.756;8.799;0.042;0.042;-0.019;
20200827_155757;0.271;7.183;5.272;0.015;-0.046;-0.103;
20200827_155757;-0.948;6.725;5.224;0.001;-0.015;0.030;
20200827_155757;0.393;5.231;7.104;0.014;0.131;0.178;
20200827_155757;3.809;14.902;21.328;-0.337;-0.005;0.088;
20200827_155757;1.092;12.596;-0.057;-0.193;0.212;-0.075;
20200827_155757;0.010;7.774;5.045;0.136;0.087;0.003;
20200827_155757;-0.232;8.660;6.637;-0.001;-0.072;-0.118;
20200827_155758;0.460;6.809;3.931;0.082;0.066;0.041;
20200827_155758;0.156;6.388;3.053;-0.094;-0.059;-0.010;
20200827_155758;0.996;7.266;4.987;0.079;-0.031;-0.012;
20200827_155758;3.242;3.539;6.958;-0.015;-0.086;-0.278;
20200827_155758;-2.732;2.416;-2.729;-0.002;0.099;0.227;
20200827_155758;1.575;-4.027;5.332;0.653;-0.000;0.751;
20200827_155758;-0.256;2.195;1.542;0.124;0.016;-0.197;
20200827_155758;0.441;7.827;6.821;0.074;-0.048;0.047;
20200827_155758;-0.919;7.168;7.537;0.005;0.010;0.092;
20200827_155758;0.443;9.048;8.581;0.023;-0.088;0.102;
20200827_155759;0.529;5.255;6.237;0.053;0.066;0.086;
20200827_155759;0.230;6.155;8.296;-0.023;-0.067;0.024;
20200827_155759;2.009;7.875;5.629;-0.030;-0.127;0.052;
20200827_155759;1.642;2.763;12.704;0.278;0.043;0.121;
20200827_155759;-2.219;4.870;8.308;-0.062;0.117;0.362;
20200827_155759;0.697;0.622;8.590;-0.135;0.042;0.270;
20200827_155759;-0.792;5.734;9.565;0.037;0.350;0.217;
20200827_155759;0.256;5.286;6.871;-0.014;0.115;-0.180;
20200827_155759;0.390;6.136;9.120;-0.033;0.075;-0.127;
20200827_155800;0.457;4.939;5.729;-0.004;0.082;0.017;
20200827_155800;-1.499;5.842;8.231;0.026;0.091;-0.021;
20200827_155800;1.748;4.429;8.997;0.030;-0.026;-0.088;
20200827_155800;2.114;4.228;2.215;0.063;-0.138;0.092;
20200827_155800;1.082;8.631;5.674;-0.090;-0.056;0.178;
20200827_155800;-0.065;3.915;7.989;-0.103;0.152;0.241;
20200827_155800;-1.001;4.621;0.836;0.075;0.121;0.024;
20200827_155800;0.960;8.052;8.712;0.081;0.102;0.009;
20200827_155800;0.275;4.350;4.264;0.244;0.143;-0.045;
20200827_155800;0.632;7.633;11.157;-0.072;0.096;-0.023;
20200827_155801;-0.359;4.712;3.591;0.007;0.020;-0.153;
20200827_155801;0.826;6.457;10.757;-0.002;0.019;0.037;
20200827_155801;0.977;6.752;8.583;-0.004;-0.018;0.062;
20200827_155801;-0.888;9.165;1.561;0.220;0.043;0.014;
20200827_155801;-0.168;4.264;8.088;0.131;0.096;0.076;
20200827_155801;0.081;3.175;6.246;0.152;0.160;-0.063;
20200827_155801;1.099;5.866;5.468;0.024;-0.005;-0.213;
20200827_155801;0.182;6.869;7.420;-0.052;-0.063;-0.166;
20200827_155801;0.716;9.172;6.072;0.068;-0.129;0.003;
20200827_155802;0.318;9.242;9.929;-0.011;-0.068;0.167;
20200827_155802;-0.141;4.966;5.507;0.176;0.030;0.143;
20200827_155802;0.208;6.105;10.681;0.013;-0.005;0.099;
20200827_155802;-0.713;5.133;6.577;0.254;-0.035;0.096;
20200827_155802;0.045;7.029;8.351;-0.091;0.045;0.194;
20200827_155802;1.561;6.402;5.569;-0.036;-0.073;-0.108;
20200827_155802;0.144;6.996;6.182;-0.072;0.012;0.086;
20200827_155802;-0.101;4.851;5.849;-0.010;0.055;0.147;
20200827_155802;0.433;6.098;4.310;0.003;0.151;0.243;
20200827_155802;1.532;6.682;9.787;-0.031;0.183;0.105;
20200827_155803;-0.160;4.662;-4.630;0.070;0.205;-0.044;
20200827_155803;1.106;6.598;6.814;0.041;0.115;-0.137;
20200827_155803;-1.674;11.768;3.122;0.249;-0.061;-0.406;
20200827_155803;-0.294;7.171;7.295;0.152;-0.103;0.084;
20200827_155803;-1.132;7.137;6.244;-0.100;-0.053;0.200;
20200827_155803;2.100;9.105;6.869;0.087;-0.041;0.189;
20200827_155803;1.223;7.685;11.267;-0.001;-0.009;-0.030;
20200827_155803;0.469;6.057;9.239;-0.044;-0.026;0.010;
20200827_155803;-0.175;7.029;5.976;-0.019;0.126;0.269;
20200827_155804;-0.220;5.899;14.902;-0.158;0.099;0.139;
20200827_155804;-0.436;7.008;4.472;0.058;0.147;-0.055;
20200827_155804;-1.573;4.673;4.269;0.098;0.110;-0.035;
20200827_155804;2.100;7.468;8.095;-0.083;-0.189;-0.241;
20200827_155804;-2.358;6.282;5.478;0.096;0.008;0.112;
20200827_155804;-0.318;4.966;8.432;0.025;-0.069;0.214;
20200827_155804;-0.062;3.728;5.258;0.085;0.028;0.115;
20200827_155804;2.284;7.635;6.555;-0.028;-0.175;-0.168;
20200827_155804;-0.879;6.376;8.526;0.003;0.016;0.159;
20200827_155804;-0.242;7.623;3.010;0.221;0.181;0.476;
20200827_155805;2.078;7.444;6.689;-0.028;0.158;0.179;
20200827_155805;0.034;7.575;8.705;-0.026;0.161;-0.084;
20200827_155805;0.436;7.896;10.247;-0.009;0.138;-0.102;
20200827_155805;0.115;3.151;7.810;-0.076;-0.005;-0.130;
20200827_155805;-0.285;5.990;7.537;0.022;-0.044;-0.169;
20200827_155805;0.479;6.536;10.889;-0.008;-0.049;0.000;
20200827_155805;-0.239;3.570;4.441;-0.031;0.025;0.241;
20200827_155805;0.294;7.077;7.101;-0.003;-0.012;0.005;
20200827_155805;-0.089;5.416;11.959;0.023;0.119;0.172;
20200827_155806;-0.347;4.015;3.591;0.014;0.198;0.114;
20200827_155806;-0.907;5.143;7.784;-0.003;0.207;-0.014;
20200827_155806;0.397;6.369;9.737;0.040;0.122;-0.164;
20200827_155806;-1.274;7.228;2.966;0.056;0.159;-0.144;
20200827_155806;0.105;4.709;9.735;-0.021;-0.084;-0.203;
20200827_155806;-0.177;4.992;7.298;-0.059;-0.048;-0.089;
20200827_155806;-0.158;3.699;0.840;0.003;-0.078;0.008;
20200827_155806;-0.831;8.835;10.941;-0.115;0.029;0.094;
20200827_155806;-0.101;2.100;7.745;0.078;0.034;-0.133;
20200827_155807;-0.273;9.574;6.895;0.097;0.056;-0.227;
20200827_155807;-0.524;7.333;6.026;0.034;0.072;-0.014;
20200827_155807;-0.577;5.169;5.097;-0.009;0.029;-0.198;
20200827_155807;-0.441;6.237;2.897;0.063;-0.074;-0.277;
20200827_155807;-0.850;6.498;7.432;-0.023;-0.067;-0.045;
20200827_155807;-0.093;5.464;5.286;0.014;-0.152;-0.053;
20200827_155807;-0.709;9.273;8.935;-0.100;-0.011;0.086;
20200827_155807;-0.299;5.689;6.462;0.015;-0.084;-0.112;
20200827_155807;0.579;6.725;4.906;-0.019;-0.139;-0.189;
20200827_155807;1.149;7.087;10.398;-0.009;-0.215;-0.073;
20200827_155808;-1.257;6.045;7.954;0.023;0.123;0.342;
20200827_155808;0.532;6.491;5.583;0.023;0.110;0.078;
20200827_155808;2.959;6.723;11.207;-0.073;-0.049;-0.294;
20200827_155808;-2.229;5.519;4.683;0.038;-0.109;-0.238;
20200827_155808;1.530;8.277;8.282;-0.121;-0.067;-0.099;
20200827_155808;-0.115;5.440;6.776;-0.011;0.012;-0.021;
20200827_155808;-0.330;5.875;6.402;-0.007;0.008;-0.024;
20200827_155808;0.232;7.788;4.659;-0.038;0.026;0.086;
20200827_155808;0.362;6.862;7.319;-0.020;0.053;0.079;
20200827_155809;-0.405;5.787;5.811;-0.009;0.092;0.009;
20200827_155809;-0.127;8.602;7.175;0.102;-0.035;-0.150;
20200827_155809;0.244;4.427;5.076;0.033;0.009;-0.094;
20200827_155809;-0.266;6.402;7.846;-0.058;-0.074;-0.074;
20200827_155809;1.307;8.162;12.572;-0.115;-0.012;-0.070;
20200827_155809;-1.204;8.346;4.891;0.131;-0.089;-0.013;
20200827_155809;1.286;7.456;6.833;-0.018;-0.156;0.088;
20200827_155809;-1.197;7.700;5.076;0.030;-0.018;0.210;
20200827_155809;1.312;8.887;7.925;0.036;0.118;0.281;
20200827_155810;-0.508;6.574;8.772;-0.013;0.045;-0.098;
